respL,graph,trialNum,path,pID,respR,walk,ISI_raw,correct_raw,onset_raw,resp_raw,rt_raw,order
"['s', 'd']",lattice,1,img/target_10.png,1,"['j', 'k']",1,0.05000000074505806,1.0,0.006588935852050781,"['j', 'k']",5.995094299316406,0.0
"['f', 'space']",lattice,2,img/target_15.png,1,"['l', 'semicolon']",3,0.05000000074505806,0.0,6.094966888427734,"['l', 'semicolon']",1.507284164428711,1.0
"['d', 'f']",lattice,3,img/target_13.png,1,"['k', 'l']",5,0.05000000074505806,1.0,10.541475296020508,"['k', 'l']",2.315958023071289,2.0
"['a', 'f']",lattice,4,img/target_8.png,1,"['space', 'l']",7,0.05000000074505806,1.0,12.942024230957031,"['l', 'space']",2.95558500289917,3.0
"['a', 's']",lattice,5,img/target_6.png,1,"['space', 'j']",9,0.05000000074505806,0.0,15.992719650268555,"['j', 'space']",1.5852160453796387,4.0
"['a', 'f']",lattice,6,img/target_8.png,1,"['space', 'l']",7,0.05000000074505806,0.0,19.492380142211914,"['l', 'space']",1.4617931842803955,5.0
"['s', 'f']",lattice,7,img/target_11.png,1,"['j', 'l']",8,0.05000000074505806,0.0,31.694013595581055,"['j', 'l']",2.4506449699401855,6.0
"['a', 'f']",lattice,8,img/target_8.png,1,"['space', 'l']",7,0.05000000074505806,0.0,35.477447509765625,"['l', 'space']",3.2114460468292236,7.0
"['a', 's']",lattice,9,img/target_6.png,1,"['space', 'j']",9,0.05000000074505806,1.0,41.66130828857422,"['j', 'space']",2.610992908477783,8.0
"['s', 'd']",lattice,10,img/target_10.png,1,"['j', 'k']",1,0.05000000074505806,1.0,44.360816955566406,"['j', 'k']",1.807440996170044,9.0
"['a', 'd']",lattice,11,img/target_7.png,1,"['space', 'k']",2,0.05000000074505806,0.0,46.261165618896484,"['k', 'space']",2.98808217048645,10.0
"['f', 'space']",lattice,12,img/target_15.png,1,"['l', 'semicolon']",3,0.05000000074505806,1.0,56.362735748291016,"['l', 'semicolon']",3.174077033996582,11.0
"['d', 'f']",lattice,13,img/target_13.png,1,"['k', 'l']",5,0.05000000074505806,1.0,59.628936767578125,"['k', 'l']",2.24526309967041,12.0
"['s', 'space']",lattice,14,img/target_12.png,1,"['j', 'semicolon']",4,0.05000000074505806,0.0,61.96343231201172,"['j', 'semicolon']",2.9239749908447266,13.0
"['d', 'f']",lattice,15,img/target_13.png,1,"['k', 'l']",5,0.05000000074505806,1.0,65.44998168945312,"['k', 'l']",1.3973701000213623,14.0
"['a', 'space']",lattice,16,img/target_9.png,1,"['space', 'semicolon']",6,0.05000000074505806,0.0,66.94732666015625,"['semicolon', 'space']",3.1721668243408203,15.0
"['s', 'f']",lattice,17,img/target_11.png,1,"['j', 'l']",8,0.05000000074505806,1.0,71.5302963256836,"['j', 'l']",2.7018589973449707,16.0
"['a', 's']",lattice,18,img/target_6.png,1,"['space', 'j']",9,0.05000000074505806,1.0,74.33098602294922,"['j', 'space']",2.6211540699005127,17.0
"['a', 'f']",lattice,19,img/target_8.png,1,"['space', 'l']",7,0.05000000074505806,0.0,77.0478515625,"['l', 'space']",2.079932928085327,18.0
"['a', 'space']",lattice,20,img/target_9.png,1,"['space', 'semicolon']",6,0.05000000074505806,0.0,80.83097839355469,"['semicolon', 'space']",2.2640058994293213,19.0
"['d', 'f']",lattice,21,img/target_13.png,1,"['k', 'l']",5,0.05000000074505806,1.0,83.93231964111328,"['k', 'l']",2.434468984603882,20.0
"['s', 'space']",lattice,22,img/target_12.png,1,"['j', 'semicolon']",4,0.05000000074505806,1.0,86.4657974243164,"['j', 'semicolon']",4.060983657836914,21.0
"['a', 'space']",lattice,23,img/target_9.png,1,"['space', 'semicolon']",6,0.05000000074505806,1.0,90.61592102050781,"['semicolon', 'space']",2.503589153289795,22.0
"['s', 'f']",lattice,24,img/target_11.png,1,"['j', 'l']",8,0.05000000074505806,1.0,93.21673583984375,"['j', 'l']",3.094599962234497,23.0
"['a', 'f']",lattice,25,img/target_8.png,1,"['space', 'l']",7,0.05000000074505806,0.0,96.40032958984375,"['l', 'space']",2.462975025177002,24.0
"['a', 'space']",lattice,26,img/target_9.png,1,"['space', 'semicolon']",6,0.05000000074505806,0.0,100.7668685913086,"['semicolon', 'space']",0.5032699108123779,25.0
"['s', 'space']",lattice,27,img/target_12.png,1,"['j', 'semicolon']",4,0.05000000074505806,0.0,104.2171859741211,"['j', 'semicolon']",2.5418541431427,26.0
"['a', 'd']",lattice,28,img/target_7.png,1,"['space', 'k']",2,0.05000000074505806,0.0,109.01770782470703,"['k', 'space']",2.72440505027771,27.0
"['f', 'space']",lattice,29,img/target_15.png,1,"['l', 'semicolon']",3,0.05000000074505806,1.0,113.60092163085938,"['l', 'semicolon']",2.5087969303131104,28.0
"['d', 'f']",lattice,30,img/target_13.png,1,"['k', 'l']",5,0.05000000074505806,1.0,116.20096588134766,"['k', 'l']",1.6935839653015137,29.0
"['a', 'f']",lattice,31,img/target_8.png,1,"['space', 'l']",7,0.05000000074505806,0.0,117.98593139648438,"['l', 'space']",1.3399550914764404,30.0
"['a', 'space']",lattice,32,img/target_9.png,1,"['space', 'semicolon']",6,0.05000000074505806,0.0,120.9850845336914,"['semicolon', 'space']",1.6366119384765625,31.0
"['d', 'f']",lattice,33,img/target_13.png,1,"['k', 'l']",5,0.05000000074505806,1.0,123.6021499633789,"['k', 'l']",1.9077949523925781,32.0
"['a', 'space']",lattice,34,img/target_9.png,1,"['space', 'semicolon']",6,0.05000000074505806,1.0,125.60629272460938,"['semicolon', 'space']",2.9443001747131348,33.0
"['d', 'f']",lattice,35,img/target_13.png,1,"['k', 'l']",5,0.05000000074505806,1.0,128.6355438232422,"['k', 'l']",2.0188329219818115,34.0
"['a', 'space']",lattice,36,img/target_9.png,1,"['space', 'semicolon']",6,0.05000000074505806,0.0,130.7527618408203,"['semicolon', 'space']",1.1004321575164795,35.0
"['d', 'f']",lattice,37,img/target_13.png,1,"['k', 'l']",5,0.05000000074505806,1.0,133.15406799316406,"['k', 'l']",1.5552830696105957,36.0
"['f', 'space']",lattice,38,img/target_15.png,1,"['l', 'semicolon']",3,0.05000000074505806,1.0,134.80325317382812,"['l', 'semicolon']",2.202720880508423,37.0
"['s', 'space']",lattice,39,img/target_12.png,1,"['j', 'semicolon']",4,0.05000000074505806,1.0,137.103759765625,"['j', 'semicolon']",1.4135689735412598,38.0
"['f', 'space']",lattice,40,img/target_15.png,1,"['l', 'semicolon']",3,0.05000000074505806,1.0,138.61984252929688,"['l', 'semicolon']",1.265491008758545,39.0
"['a', 'd']",lattice,41,img/target_7.png,1,"['space', 'k']",2,0.05000000074505806,1.0,139.9901885986328,"['k', 'space']",1.919950008392334,40.0
"['d', 'space']",lattice,42,img/target_14.png,1,"['k', 'semicolon']",0,0.05000000074505806,1.0,142.00466918945312,"['k', 'semicolon']",1.6813058853149414,41.0
"['a', 'd']",lattice,43,img/target_7.png,1,"['space', 'k']",2,0.05000000074505806,1.0,143.7877655029297,"['k', 'space']",1.0823538303375244,42.0
"['s', 'space']",lattice,44,img/target_12.png,1,"['j', 'semicolon']",4,0.05000000074505806,1.0,144.97067260742188,"['j', 'semicolon']",1.5315659046173096,43.0
"['a', 'd']",lattice,45,img/target_7.png,1,"['space', 'k']",2,0.05000000074505806,0.0,146.6048126220703,"['k', 'space']",1.1359469890594482,44.0
"['s', 'space']",lattice,46,img/target_12.png,1,"['j', 'semicolon']",4,0.05000000074505806,1.0,249.21453857421875,"['j', 'semicolon']",5.54801607131958,45.0
"['f', 'space']",lattice,47,img/target_15.png,1,"['l', 'semicolon']",3,0.05000000074505806,1.0,254.86483764648438,"['l', 'semicolon']",1.8096530437469482,46.0
"['a', 'd']",lattice,48,img/target_7.png,1,"['space', 'k']",2,0.05000000074505806,0.0,256.7650146484375,"['k', 'space']",3.9813671112060547,47.0
"['s', 'space']",lattice,49,img/target_12.png,1,"['j', 'semicolon']",4,0.05000000074505806,1.0,264.4005126953125,"['j', 'semicolon']",4.4332499504089355,48.0
"['a', 'd']",lattice,50,img/target_7.png,1,"['space', 'k']",2,0.05000000074505806,1.0,268.9352111816406,"['k', 'space']",2.770448923110962,49.0
"['d', 'space']",lattice,51,img/target_14.png,1,"['k', 'semicolon']",0,0.05000000074505806,0.0,271.7997131347656,"['k', 'semicolon']",2.737933874130249,50.0
"['s', 'd']",lattice,52,img/target_10.png,1,"['j', 'k']",1,0.05000000074505806,1.0,275.45001220703125,"['j', 'k']",1.5279059410095215,51.0
"['a', 's']",lattice,53,img/target_6.png,1,"['space', 'j']",9,0.05000000074505806,1.0,277.0669860839844,"['j', 'space']",1.750641107559204,52.0
"['s', 'f']",lattice,54,img/target_11.png,1,"['j', 'l']",8,0.05000000074505806,1.0,278.91741943359375,"['j', 'l']",3.4030587673187256,53.0
"['a', 'f']",lattice,55,img/target_8.png,1,"['space', 'l']",7,0.05000000074505806,1.0,282.4173889160156,"['l', 'space']",2.400146961212158,54.0
"['s', 'f']",lattice,56,img/target_11.png,1,"['j', 'l']",8,0.05000000074505806,1.0,284.9021301269531,"['j', 'l']",1.5791051387786865,55.0
"['a', 's']",lattice,57,img/target_6.png,1,"['space', 'j']",9,0.05000000074505806,0.0,286.56793212890625,"['j', 'space']",1.6960468292236328,56.0
"['d', 'space']",lattice,58,img/target_14.png,1,"['k', 'semicolon']",0,0.05000000074505806,0.0,289.3848571777344,"['k', 'semicolon']",1.5991559028625488,57.0
"['s', 'd']",lattice,59,img/target_10.png,1,"['j', 'k']",1,0.05000000074505806,1.0,295.185791015625,"['j', 'k']",1.678976058959961,58.0
"['f', 'space']",lattice,60,img/target_15.png,1,"['l', 'semicolon']",3,0.05000000074505806,1.0,296.95220947265625,"['l', 'semicolon']",1.8965630531311035,59.0
"['d', 'f']",lattice,61,img/target_13.png,1,"['k', 'l']",5,0.05000000074505806,1.0,298.940185546875,"['k', 'l']",1.5956268310546875,60.0
"['s', 'space']",lattice,62,img/target_12.png,1,"['j', 'semicolon']",4,0.05000000074505806,0.0,300.6364440917969,"['j', 'semicolon']",2.932366132736206,61.0
"['d', 'f']",lattice,63,img/target_13.png,1,"['k', 'l']",5,0.05000000074505806,1.0,304.93634033203125,"['k', 'l']",1.6310780048370361,62.0
"['f', 'space']",lattice,64,img/target_15.png,1,"['l', 'semicolon']",3,0.05000000074505806,1.0,306.6529235839844,"['l', 'semicolon']",1.1556849479675293,63.0
"['s', 'space']",lattice,65,img/target_12.png,1,"['j', 'semicolon']",4,0.05000000074505806,1.0,307.90386962890625,"['j', 'semicolon']",3.8887879848480225,64.0
"['f', 'space']",lattice,66,img/target_15.png,1,"['l', 'semicolon']",3,0.05000000074505806,1.0,311.886962890625,"['l', 'semicolon']",1.9202909469604492,65.0
"['a', 'd']",lattice,67,img/target_7.png,1,"['space', 'k']",2,0.05000000074505806,0.0,313.90472412109375,"['k', 'space']",3.270566940307617,66.0
"['f', 'space']",lattice,68,img/target_15.png,1,"['l', 'semicolon']",3,0.05000000074505806,1.0,329.939453125,"['l', 'semicolon']",2.5073838233947754,67.0
"['s', 'space']",lattice,69,img/target_12.png,1,"['j', 'semicolon']",4,0.05000000074505806,0.0,332.53955078125,"['j', 'semicolon']",2.2749252319335938,68.0
"['f', 'space']",lattice,70,img/target_15.png,1,"['l', 'semicolon']",3,0.05000000074505806,0.0,339.2568359375,"['l', 'semicolon']",0.47742319107055664,69.0
"['s', 'd']",lattice,71,img/target_10.png,1,"['j', 'k']",1,0.05000000074505806,1.0,341.790283203125,"['j', 'k']",2.2078230381011963,70.0
"['a', 'd']",lattice,72,img/target_7.png,1,"['space', 'k']",2,0.05000000074505806,0.0,344.0903015136719,"['k', 'space']",1.9811170101165771,71.0
"['s', 'space']",lattice,73,img/target_12.png,1,"['j', 'semicolon']",4,0.05000000074505806,1.0,347.8245544433594,"['j', 'semicolon']",3.4708750247955322,72.0
"['d', 'f']",lattice,74,img/target_13.png,1,"['k', 'l']",5,0.05000000074505806,1.0,351.3912048339844,"['k', 'l']",1.8547520637512207,73.0
"['s', 'space']",lattice,75,img/target_12.png,1,"['j', 'semicolon']",4,0.05000000074505806,0.0,353.3410949707031,"['j', 'semicolon']",1.0817830562591553,74.0
"['a', 'd']",lattice,76,img/target_7.png,1,"['space', 'k']",2,0.05000000074505806,1.0,362.6257629394531,"['k', 'space']",1.9165809154510498,75.0
"['s', 'space']",lattice,77,img/target_12.png,1,"['j', 'semicolon']",4,0.05000000074505806,0.0,364.6418762207031,"['j', 'semicolon']",2.124721050262451,76.0
"['d', 'f']",lattice,78,img/target_13.png,1,"['k', 'l']",5,0.05000000074505806,1.0,370.4259338378906,"['k', 'l']",1.4127140045166016,77.0
"['a', 'space']",lattice,79,img/target_9.png,1,"['space', 'semicolon']",6,0.05000000074505806,0.0,371.9259033203125,"['semicolon', 'space']",1.7363331317901611,78.0
"['s', 'space']",lattice,80,img/target_12.png,1,"['j', 'semicolon']",4,0.05000000074505806,1.0,379.6937561035156,"['j', 'semicolon']",2.143126964569092,79.0
"['a', 'space']",lattice,81,img/target_9.png,1,"['space', 'semicolon']",6,0.05000000074505806,0.0,381.9281311035156,"['semicolon', 'space']",1.197754144668579,80.0
"['s', 'space']",lattice,82,img/target_12.png,1,"['j', 'semicolon']",4,0.05000000074505806,1.0,385.6441650390625,"['j', 'semicolon']",1.5606868267059326,81.0
"['f', 'space']",lattice,83,img/target_15.png,1,"['l', 'semicolon']",3,0.05000000074505806,1.0,387.2945861816406,"['l', 'semicolon']",2.038137912750244,82.0
"['a', 'd']",lattice,84,img/target_7.png,1,"['space', 'k']",2,0.05000000074505806,0.0,389.4278869628906,"['k', 'space']",1.090142011642456,83.0
"['s', 'space']",lattice,85,img/target_12.png,1,"['j', 'semicolon']",4,0.05000000074505806,0.0,393.0296325683594,"['j', 'semicolon']",3.175920009613037,84.0
"['a', 'space']",lattice,86,img/target_9.png,1,"['space', 'semicolon']",6,0.05000000074505806,0.0,405.08203125,"['semicolon', 'space']",1.5061709880828857,85.0
"['s', 'f']",lattice,87,img/target_11.png,1,"['j', 'l']",8,0.05000000074505806,1.0,408.9132385253906,"['j', 'l']",2.9708540439605713,86.0
"['d', 'space']",lattice,88,img/target_14.png,1,"['k', 'semicolon']",0,0.05000000074505806,0.0,411.9806213378906,"['k', 'semicolon']",1.6963930130004883,87.0
"['a', 's']",lattice,89,img/target_6.png,1,"['space', 'j']",9,0.05000000074505806,0.0,417.9478454589844,"['j', 'space']",2.0720021724700928,88.0
"['a', 'f']",lattice,90,img/target_8.png,1,"['space', 'l']",7,0.05000000074505806,0.0,421.7813720703125,"['l', 'space']",2.17502498626709,89.0
"['a', 'space']",lattice,91,img/target_9.png,1,"['space', 'semicolon']",6,0.05000000074505806,0.0,426.04803466796875,"['semicolon', 'space']",0.43672704696655273,90.0
"['s', 'space']",lattice,92,img/target_12.png,1,"['j', 'semicolon']",4,0.05000000074505806,0.0,428.49896240234375,"['j', 'semicolon']",0.5204291343688965,91.0
"['f', 'space']",lattice,93,img/target_15.png,1,"['l', 'semicolon']",3,0.05000000074505806,1.0,436.8000793457031,"['l', 'semicolon']",1.5798649787902832,92.0
"['a', 'd']",lattice,94,img/target_7.png,1,"['space', 'k']",2,0.05000000074505806,1.0,438.48284912109375,"['k', 'space']",2.2724552154541016,93.0
"['s', 'd']",lattice,95,img/target_10.png,1,"['j', 'k']",1,0.05000000074505806,1.0,440.849365234375,"['j', 'k']",1.9949240684509277,94.0
"['f', 'space']",lattice,96,img/target_15.png,1,"['l', 'semicolon']",3,0.05000000074505806,1.0,442.9339599609375,"['l', 'semicolon']",2.0290610790252686,95.0
"['s', 'space']",lattice,97,img/target_12.png,1,"['j', 'semicolon']",4,0.05000000074505806,1.0,445.0495910644531,"['j', 'semicolon']",2.5533480644226074,96.0
"['a', 'space']",lattice,98,img/target_9.png,1,"['space', 'semicolon']",6,0.05000000074505806,0.0,447.7032165527344,"['semicolon', 'space']",2.067559003829956,97.0
"['s', 'f']",lattice,99,img/target_11.png,1,"['j', 'l']",8,0.05000000074505806,1.0,454.783935546875,"['j', 'l']",2.971550941467285,98.0
"['a', 'f']",lattice,100,img/target_8.png,1,"['space', 'l']",7,0.05000000074505806,0.0,457.8511962890625,"['l', 'space']",1.6402738094329834,99.0
"['a', 'space']",lattice,101,img/target_9.png,1,"['space', 'semicolon']",6,0.05000000074505806,0.0,460.4185485839844,"['semicolon', 'space']",5.247714996337891,100.0
"['s', 'f']",lattice,102,img/target_11.png,1,"['j', 'l']",8,0.05000000074505806,0.0,480.78729248046875,"['j', 'l']",4.4384379386901855,101.0
"['a', 's']",lattice,103,img/target_6.png,1,"['space', 'j']",9,0.05000000074505806,0.0,503.20599365234375,"['j', 'space']",1.3711860179901123,102.0
"['a', 'f']",lattice,104,img/target_8.png,1,"['space', 'l']",7,0.05000000074505806,0.0,510.14013671875,"['l', 'space']",1.221452236175537,103.0
"['d', 'f']",lattice,105,img/target_13.png,1,"['k', 'l']",5,0.05000000074505806,0.0,514.6080322265625,"['k', 'l']",1.5212368965148926,104.0
"['a', 'f']",lattice,106,img/target_8.png,1,"['space', 'l']",7,0.05000000074505806,0.0,522.941162109375,"['l', 'space']",1.5070300102233887,105.0
"['a', 'space']",lattice,107,img/target_9.png,1,"['space', 'semicolon']",6,0.05000000074505806,0.0,528.0421752929688,"['semicolon', 'space']",1.2313611507415771,106.0
"['s', 'f']",lattice,108,img/target_11.png,1,"['j', 'l']",8,0.05000000074505806,0.0,535.2760620117188,"['j', 'l']",2.0124778747558594,107.0
"['a', 'f']",lattice,109,img/target_8.png,1,"['space', 'l']",7,0.05000000074505806,0.0,539.2926635742188,"['l', 'space']",0.8594329357147217,108.0
"['a', 's']",lattice,110,img/target_6.png,1,"['space', 'j']",9,0.05000000074505806,0.0,540.9605712890625,"['j', 'space']",1.0950689315795898,109.0
"['s', 'f']",lattice,111,img/target_11.png,1,"['j', 'l']",8,0.05000000074505806,0.0,543.343017578125,"['j', 'l']",0.7616450786590576,110.0
"['d', 'space']",lattice,112,img/target_14.png,1,"['k', 'semicolon']",0,0.05000000074505806,0.0,546.5142822265625,"['k', 'semicolon']",0.310230016708374,111.0
"['s', 'd']",lattice,113,img/target_10.png,1,"['j', 'k']",1,0.05000000074505806,1.0,551.227294921875,"['j', 'k']",1.3169400691986084,112.0
"['a', 'd']",lattice,114,img/target_7.png,1,"['space', 'k']",2,0.05000000074505806,0.0,552.64404296875,"['k', 'space']",1.3232181072235107,113.0
"['f', 'space']",lattice,115,img/target_15.png,1,"['l', 'semicolon']",3,0.05000000074505806,1.0,555.3941650390625,"['l', 'semicolon']",1.7426691055297852,114.0
"['s', 'space']",lattice,116,img/target_12.png,1,"['j', 'semicolon']",4,0.05000000074505806,0.0,557.2291259765625,"['j', 'semicolon']",1.266145944595337,115.0
"['f', 'space']",lattice,117,img/target_15.png,1,"['l', 'semicolon']",3,0.05000000074505806,1.0,559.7803344726562,"['l', 'semicolon']",1.3712379932403564,116.0
"['d', 'f']",lattice,118,img/target_13.png,1,"['k', 'l']",5,0.05000000074505806,1.0,561.2454223632812,"['k', 'l']",1.889679193496704,117.0
"['a', 'space']",lattice,119,img/target_9.png,1,"['space', 'semicolon']",6,0.05000000074505806,0.0,563.2289428710938,"['semicolon', 'space']",1.1619770526885986,118.0
"['s', 'f']",lattice,120,img/target_11.png,1,"['j', 'l']",8,0.05000000074505806,0.0,566.545166015625,"['j', 'l']",1.838866949081421,119.0
"['d', 'space']",lattice,121,img/target_14.png,1,"['k', 'semicolon']",0,0.05000000074505806,1.0,571.3623657226562,"['k', 'semicolon']",3.4214460849761963,120.0
"['a', 'd']",lattice,122,img/target_7.png,1,"['space', 'k']",2,0.05000000074505806,0.0,574.8805541992188,"['k', 'space']",1.839784860610962,121.0
"['s', 'space']",lattice,123,img/target_12.png,1,"['j', 'semicolon']",4,0.05000000074505806,0.0,579.0469970703125,"['j', 'semicolon']",1.9691009521484375,122.0
"['a', 'd']",lattice,124,img/target_7.png,1,"['space', 'k']",2,0.05000000074505806,0.0,583.0807495117188,"['k', 'space']",1.8065919876098633,123.0
"['s', 'space']",lattice,125,img/target_12.png,1,"['j', 'semicolon']",4,0.05000000074505806,0.0,585.9303588867188,"['j', 'semicolon']",1.8038020133972168,124.0
"['a', 'space']",lattice,126,img/target_9.png,1,"['space', 'semicolon']",6,0.05000000074505806,0.0,590.4815063476562,"['semicolon', 'space']",2.125545024871826,125.0
"['s', 'space']",lattice,127,img/target_12.png,1,"['j', 'semicolon']",4,0.05000000074505806,1.0,594.3822021484375,"['j', 'semicolon']",2.2175559997558594,126.0
"['d', 'f']",lattice,128,img/target_13.png,1,"['k', 'l']",5,0.05000000074505806,0.0,596.6983642578125,"['k', 'l']",2.8677849769592285,127.0
"['s', 'space']",lattice,129,img/target_12.png,1,"['j', 'semicolon']",4,0.05000000074505806,0.0,601.3994750976562,"['j', 'semicolon']",2.318796157836914,128.0
"['d', 'f']",lattice,130,img/target_13.png,1,"['k', 'l']",5,0.05000000074505806,0.0,607.2333984375,"['k', 'l']",1.22959303855896,129.0
"['a', 'space']",lattice,131,img/target_9.png,1,"['space', 'semicolon']",6,0.05000000074505806,0.0,611.0162963867188,"['semicolon', 'space']",3.0144031047821045,130.0
"['a', 'f']",lattice,132,img/target_8.png,1,"['space', 'l']",7,0.05000000074505806,0.0,615.4334716796875,"['l', 'space']",0.4117400646209717,131.0
"['a', 'space']",lattice,133,img/target_9.png,1,"['space', 'semicolon']",6,0.05000000074505806,0.0,619.201904296875,"['semicolon', 'space']",0.33971500396728516,132.0
"['s', 'f']",lattice,134,img/target_11.png,1,"['j', 'l']",8,0.05000000074505806,0.0,627.10302734375,"['j', 'l']",0.38310813903808594,133.0
"['a', 'space']",lattice,135,img/target_9.png,1,"['space', 'semicolon']",6,0.05000000074505806,0.0,631.635009765625,"['semicolon', 'space']",1.5870680809020996,134.0
"['a', 'f']",lattice,136,img/target_8.png,1,"['space', 'l']",7,0.05000000074505806,0.0,657.7380981445312,"['l', 'space']",0.36214208602905273,135.0
"['a', 'space']",lattice,137,img/target_9.png,1,"['space', 'semicolon']",6,0.05000000074505806,1.0,663.8046875,"['semicolon', 'space']",2.9110610485076904,136.0
"['a', 'f']",lattice,138,img/target_8.png,1,"['space', 'l']",7,0.05000000074505806,1.0,666.8048706054688,"['l', 'space']",2.2797329425811768,137.0
"['d', 'f']",lattice,139,img/target_13.png,1,"['k', 'l']",5,0.05000000074505806,1.0,669.171875,"['k', 'l']",2.216823101043701,138.0
"['s', 'space']",lattice,140,img/target_12.png,1,"['j', 'semicolon']",4,0.05000000074505806,0.0,671.4898681640625,"['j', 'semicolon']",2.042496919631958,139.0
"['a', 'd']",lattice,141,img/target_7.png,1,"['space', 'k']",2,0.05000000074505806,1.0,675.0224609375,"['k', 'space']",2.3009650707244873,140.0
"['s', 'space']",lattice,142,img/target_12.png,1,"['j', 'semicolon']",4,0.05000000074505806,0.0,677.4227905273438,"['j', 'semicolon']",3.2290151119232178,141.0
"['a', 'space']",lattice,143,img/target_9.png,1,"['space', 'semicolon']",6,0.05000000074505806,0.0,681.6063842773438,"['semicolon', 'space']",1.3489091396331787,142.0
"['d', 'f']",lattice,144,img/target_13.png,1,"['k', 'l']",5,0.05000000074505806,0.0,684.124267578125,"['k', 'l']",0.3748021125793457,143.0
"['f', 'space']",lattice,145,img/target_15.png,1,"['l', 'semicolon']",3,0.05000000074505806,1.0,686.62451171875,"['l', 'semicolon']",2.1633548736572266,144.0
"['d', 'f']",lattice,146,img/target_13.png,1,"['k', 'l']",5,0.05000000074505806,1.0,688.8739013671875,"['k', 'l']",1.7208969593048096,145.0
"['f', 'space']",lattice,147,img/target_15.png,1,"['l', 'semicolon']",3,0.05000000074505806,1.0,690.6906127929688,"['l', 'semicolon']",0.9853360652923584,146.0
"['d', 'f']",lattice,148,img/target_13.png,1,"['k', 'l']",5,0.05000000074505806,1.0,691.7749633789062,"['k', 'l']",0.9008200168609619,147.0
"['f', 'space']",lattice,149,img/target_15.png,1,"['l', 'semicolon']",3,0.05000000074505806,1.0,692.7747802734375,"['l', 'semicolon']",0.8517539501190186,148.0
"['s', 'd']",lattice,150,img/target_10.png,1,"['j', 'k']",1,0.05000000074505806,1.0,693.7256469726562,"['j', 'k']",1.8298020362854004,149.0
"['f', 'space']",lattice,151,img/target_15.png,1,"['l', 'semicolon']",3,0.05000000074505806,1.0,695.6411743164062,"['l', 'semicolon']",1.5854740142822266,150.0
"['s', 'd']",lattice,152,img/target_10.png,1,"['j', 'k']",1,0.05000000074505806,0.0,697.3253784179688,"['j', 'k']",1.1265480518341064,151.0
"['a', 's']",lattice,153,img/target_6.png,1,"['space', 'j']",9,0.05000000074505806,0.0,700.0765991210938,"['j', 'space']",1.6551580429077148,152.0
"['s', 'd']",lattice,154,img/target_10.png,1,"['j', 'k']",1,0.05000000074505806,1.0,702.125,"['j', 'k']",1.2532849311828613,153.0
"['f', 'space']",lattice,155,img/target_15.png,1,"['l', 'semicolon']",3,0.05000000074505806,0.0,703.4759521484375,"['l', 'semicolon']",0.9672021865844727,154.0
"['s', 'd']",lattice,156,img/target_10.png,1,"['j', 'k']",1,0.05000000074505806,1.0,706.7421875,"['j', 'k']",1.9807209968566895,155.0
"['a', 's']",lattice,157,img/target_6.png,1,"['space', 'j']",9,0.05000000074505806,0.0,708.826904296875,"['j', 'space']",1.128589153289795,156.0
"['d', 'space']",lattice,158,img/target_14.png,1,"['k', 'semicolon']",0,0.05000000074505806,0.0,711.9105224609375,"['k', 'semicolon']",1.6853008270263672,157.0
"['a', 's']",lattice,159,img/target_6.png,1,"['space', 'j']",9,0.05000000074505806,1.0,715.8929443359375,"['j', 'space']",2.7091879844665527,158.0
"['s', 'd']",lattice,160,img/target_10.png,1,"['j', 'k']",1,0.05000000074505806,1.0,718.6936645507812,"['j', 'k']",3.74019193649292,159.0
"['a', 'd']",lattice,161,img/target_7.png,1,"['space', 'k']",2,0.05000000074505806,1.0,722.5277709960938,"['k', 'space']",2.1538968086242676,160.0
"['s', 'd']",lattice,162,img/target_10.png,1,"['j', 'k']",1,0.05000000074505806,1.0,724.779052734375,"['j', 'k']",1.8393049240112305,161.0
"['a', 's']",lattice,163,img/target_6.png,1,"['space', 'j']",9,0.05000000074505806,1.0,726.71484375,"['j', 'space']",1.9758579730987549,162.0
"['s', 'd']",lattice,164,img/target_10.png,1,"['j', 'k']",1,0.05000000074505806,1.0,728.79833984375,"['j', 'k']",1.5871310234069824,163.0
"['a', 'd']",lattice,165,img/target_7.png,1,"['space', 'k']",2,0.05000000074505806,1.0,730.4819946289062,"['k', 'space']",2.1357429027557373,164.0
"['d', 'space']",lattice,166,img/target_14.png,1,"['k', 'semicolon']",0,0.05000000074505806,0.0,732.7110595703125,"['k', 'semicolon']",3.187796115875244,165.0
"['s', 'f']",lattice,167,img/target_11.png,1,"['j', 'l']",8,0.05000000074505806,1.0,736.9784545898438,"['j', 'l']",2.3906500339508057,166.0
"['d', 'space']",lattice,168,img/target_14.png,1,"['k', 'semicolon']",0,0.05000000074505806,1.0,739.4793090820312,"['k', 'semicolon']",4.2907280921936035,167.0
"['a', 's']",lattice,169,img/target_6.png,1,"['space', 'j']",9,0.05000000074505806,1.0,743.8626098632812,"['j', 'space']",2.3224399089813232,168.0
"['a', 'f']",lattice,170,img/target_8.png,1,"['space', 'l']",7,0.05000000074505806,0.0,746.2804565429688,"['l', 'space']",2.569582939147949,169.0
"['a', 'space']",lattice,171,img/target_9.png,1,"['space', 'semicolon']",6,0.05000000074505806,0.0,749.8640747070312,"['semicolon', 'space']",0.48164892196655273,170.0
"['s', 'f']",lattice,172,img/target_11.png,1,"['j', 'l']",8,0.05000000074505806,0.0,754.1140747070312,"['j', 'l']",3.4548568725585938,171.0
"['a', 'f']",lattice,173,img/target_8.png,1,"['space', 'l']",7,0.05000000074505806,0.0,760.3319091796875,"['l', 'space']",1.4141180515289307,172.0
"['d', 'f']",lattice,174,img/target_13.png,1,"['k', 'l']",5,0.05000000074505806,1.0,762.4813232421875,"['k', 'l']",1.8070850372314453,173.0
"['a', 'space']",lattice,175,img/target_9.png,1,"['space', 'semicolon']",6,0.05000000074505806,0.0,764.381591796875,"['semicolon', 'space']",2.827970027923584,174.0
"['s', 'f']",lattice,176,img/target_11.png,1,"['j', 'l']",8,0.05000000074505806,1.0,769.71533203125,"['j', 'l']",2.1984710693359375,175.0
"['a', 'space']",lattice,177,img/target_9.png,1,"['space', 'semicolon']",6,0.05000000074505806,0.0,771.9986572265625,"['semicolon', 'space']",2.18546199798584,176.0
"['a', 'f']",lattice,178,img/target_8.png,1,"['space', 'l']",7,0.05000000074505806,1.0,776.849609375,"['l', 'space']",2.2865560054779053,177.0
"['s', 'f']",lattice,179,img/target_11.png,1,"['j', 'l']",8,0.05000000074505806,1.0,779.2335205078125,"['j', 'l']",1.6957740783691406,178.0
"['a', 'f']",lattice,180,img/target_8.png,1,"['space', 'l']",7,0.05000000074505806,1.0,781.0187377929688,"['l', 'space']",2.8131628036499023,179.0
"['s', 'f']",lattice,181,img/target_11.png,1,"['j', 'l']",8,0.05000000074505806,1.0,783.9179077148438,"['j', 'l']",1.667186975479126,180.0
"['a', 'space']",lattice,182,img/target_9.png,1,"['space', 'semicolon']",6,0.05000000074505806,0.0,785.6836547851562,"['semicolon', 'space']",2.675903081893921,181.0
"['a', 'f']",lattice,183,img/target_8.png,1,"['space', 'l']",7,0.05000000074505806,0.0,789.3873901367188,"['l', 'space']",2.2044670581817627,182.0
"['d', 'f']",lattice,184,img/target_13.png,1,"['k', 'l']",5,0.05000000074505806,0.0,792.3046875,"['k', 'l']",1.454524040222168,183.0
"['a', 'f']",lattice,185,img/target_8.png,1,"['space', 'l']",7,0.05000000074505806,0.0,795.0008544921875,"['l', 'space']",3.350356101989746,184.0
"['a', 's']",lattice,186,img/target_6.png,1,"['space', 'j']",9,0.05000000074505806,0.0,799.334716796875,"['j', 'space']",0.8566980361938477,185.0
"['a', 'f']",lattice,187,img/target_8.png,1,"['space', 'l']",7,0.05000000074505806,0.0,801.8680419921875,"['l', 'space']",1.9629900455474854,186.0
"['d', 'f']",lattice,188,img/target_13.png,1,"['k', 'l']",5,0.05000000074505806,1.0,805.12158203125,"['k', 'l']",2.574794054031372,187.0
"['f', 'space']",lattice,189,img/target_15.png,1,"['l', 'semicolon']",3,0.05000000074505806,1.0,807.7861938476562,"['l', 'semicolon']",3.908797025680542,188.0
"['a', 'd']",lattice,190,img/target_7.png,1,"['space', 'k']",2,0.05000000074505806,0.0,811.7862548828125,"['k', 'space']",1.7499639987945557,189.0
"['s', 'd']",lattice,191,img/target_10.png,1,"['j', 'k']",1,0.05000000074505806,0.0,815.6365966796875,"['j', 'k']",0.31424903869628906,190.0
"['d', 'space']",lattice,192,img/target_14.png,1,"['k', 'semicolon']",0,0.05000000074505806,0.0,817.186279296875,"['k', 'semicolon']",0.33388614654541016,191.0
"['a', 's']",lattice,193,img/target_6.png,1,"['space', 'j']",9,0.05000000074505806,0.0,822.63671875,"['j', 'space']",0.4665951728820801,192.0
"['d', 'space']",lattice,194,img/target_14.png,1,"['k', 'semicolon']",0,0.05000000074505806,0.0,825.62158203125,"['k', 'semicolon']",0.3533802032470703,193.0
"['a', 'd']",lattice,195,img/target_7.png,1,"['space', 'k']",2,0.05000000074505806,1.0,830.8375244140625,"['k', 'space']",2.521690845489502,194.0
"['f', 'space']",lattice,196,img/target_15.png,1,"['l', 'semicolon']",3,0.05000000074505806,1.0,833.4544677734375,"['l', 'semicolon']",2.0085530281066895,195.0
"['a', 'd']",lattice,197,img/target_7.png,1,"['space', 'k']",2,0.05000000074505806,0.0,835.5546875,"['k', 'space']",1.6282119750976562,196.0
"['d', 'space']",lattice,198,img/target_14.png,1,"['k', 'semicolon']",0,0.05000000074505806,0.0,840.0721435546875,"['k', 'semicolon']",1.5261070728302002,197.0
"['s', 'd']",lattice,199,img/target_10.png,1,"['j', 'k']",1,0.05000000074505806,1.0,847.1240234375,"['j', 'k']",2.409726142883301,198.0
"['a', 's']",lattice,200,img/target_6.png,1,"['space', 'j']",9,0.05000000074505806,0.0,849.6226806640625,"['j', 'space']",0.6399698257446289,199.0
"['s', 'f']",lattice,201,img/target_11.png,1,"['j', 'l']",8,0.05000000074505806,0.0,871.94189453125,"['j', 'l']",2.5039589405059814,200.0
"['a', 'f']",lattice,202,img/target_8.png,1,"['space', 'l']",7,0.05000000074505806,0.0,875.24267578125,"['l', 'space']",0.49933505058288574,201.0
"['a', 'space']",lattice,203,img/target_9.png,1,"['space', 'semicolon']",6,0.05000000074505806,0.0,880.4097900390625,"['semicolon', 'space']",2.6349070072174072,202.0
"['d', 'f']",lattice,204,img/target_13.png,1,"['k', 'l']",5,0.05000000074505806,1.0,885.0762939453125,"['k', 'l']",2.4491050243377686,203.0
"['f', 'space']",lattice,205,img/target_15.png,1,"['l', 'semicolon']",3,0.05000000074505806,1.0,887.626953125,"['l', 'semicolon']",3.53027606010437,204.0
"['a', 'd']",lattice,206,img/target_7.png,1,"['space', 'k']",2,0.05000000074505806,1.0,891.2452392578125,"['k', 'space']",2.2551608085632324,205.0
"['s', 'space']",lattice,207,img/target_12.png,1,"['j', 'semicolon']",4,0.05000000074505806,1.0,893.593505859375,"['j', 'semicolon']",4.058549880981445,206.0
"['a', 'space']",lattice,208,img/target_9.png,1,"['space', 'semicolon']",6,0.05000000074505806,1.0,897.7437744140625,"['semicolon', 'space']",2.4440550804138184,207.0
"['a', 'f']",lattice,209,img/target_8.png,1,"['space', 'l']",7,0.05000000074505806,1.0,900.278076171875,"['l', 'space']",2.4788730144500732,208.0
"['d', 'f']",lattice,210,img/target_13.png,1,"['k', 'l']",5,0.05000000074505806,1.0,902.8447875976562,"['k', 'l']",2.0228569507598877,209.0
"['f', 'space']",lattice,211,img/target_15.png,1,"['l', 'semicolon']",3,0.05000000074505806,1.0,904.96142578125,"['l', 'semicolon']",3.4749369621276855,210.0
"['a', 'd']",lattice,212,img/target_7.png,1,"['space', 'k']",2,0.05000000074505806,0.0,908.5302734375,"['k', 'space']",2.9145379066467285,211.0
"['d', 'space']",lattice,213,img/target_14.png,1,"['k', 'semicolon']",0,0.05000000074505806,0.0,915.7660522460938,"['k', 'semicolon']",5.237925052642822,212.0
"['s', 'd']",lattice,214,img/target_10.png,1,"['j', 'k']",1,0.05000000074505806,1.0,926.4977416992188,"['j', 'k']",2.273906946182251,213.0
"['a', 's']",lattice,215,img/target_6.png,1,"['space', 'j']",9,0.05000000074505806,0.0,928.8641967773438,"['j', 'space']",26.042842864990234,214.0
"['s', 'd']",lattice,216,img/target_10.png,1,"['j', 'k']",1,0.05000000074505806,1.0,998.637939453125,"['j', 'k']",4.300699234008789,215.0
"['d', 'space']",lattice,217,img/target_14.png,1,"['k', 'semicolon']",0,0.05000000074505806,0.0,1003.03857421875,"['k', 'semicolon']",2.6356379985809326,216.0
"['s', 'd']",lattice,218,img/target_10.png,1,"['j', 'k']",1,0.05000000074505806,1.0,1008.2564697265625,"['j', 'k']",1.935987949371338,217.0
"['a', 's']",lattice,219,img/target_6.png,1,"['space', 'j']",9,0.05000000074505806,0.0,1010.28955078125,"['j', 'space']",2.344558000564575,218.0
"['s', 'f']",lattice,220,img/target_11.png,1,"['j', 'l']",8,0.05000000074505806,0.0,1014.4387817382812,"['j', 'l']",1.5534448623657227,219.0
"['d', 'space']",lattice,221,img/target_14.png,1,"['k', 'semicolon']",0,0.05000000074505806,0.0,1019.7913208007812,"['k', 'semicolon']",0.6253931522369385,220.0
"['a', 's']",lattice,222,img/target_6.png,1,"['space', 'j']",9,0.05000000074505806,0.0,1023.0899658203125,"['j', 'space']",2.0389320850372314,221.0
"['d', 'space']",lattice,223,img/target_14.png,1,"['k', 'semicolon']",0,0.05000000074505806,0.0,1027.1898193359375,"['k', 'semicolon']",3.970133066177368,222.0
"['a', 'd']",lattice,224,img/target_7.png,1,"['space', 'k']",2,0.05000000074505806,0.0,1043.292236328125,"['k', 'space']",1.8522939682006836,223.0
"['s', 'd']",lattice,225,img/target_10.png,1,"['j', 'k']",1,0.05000000074505806,1.0,1097.64794921875,"['j', 'k']",1.6390831470489502,224.0
"['d', 'space']",lattice,226,img/target_14.png,1,"['k', 'semicolon']",0,0.05000000074505806,0.0,1099.39794921875,"['k', 'semicolon']",2.9446868896484375,225.0
"['a', 's']",lattice,227,img/target_6.png,1,"['space', 'j']",9,0.05000000074505806,0.0,1104.080810546875,"['j', 'space']",2.204537868499756,226.0
"['s', 'd']",lattice,228,img/target_10.png,1,"['j', 'k']",1,0.05000000074505806,1.0,1109.198486328125,"['j', 'k']",2.0962209701538086,227.0
"['a', 's']",lattice,229,img/target_6.png,1,"['space', 'j']",9,0.05000000074505806,1.0,1111.381591796875,"['j', 'space']",1.2883930206298828,228.0
"['s', 'd']",lattice,230,img/target_10.png,1,"['j', 'k']",1,0.05000000074505806,1.0,1112.7655029296875,"['j', 'k']",1.6008479595184326,229.0
"['a', 's']",lattice,231,img/target_6.png,1,"['space', 'j']",9,0.05000000074505806,0.0,1114.4666748046875,"['j', 'space']",1.2682340145111084,230.0
"['a', 'f']",lattice,232,img/target_8.png,1,"['space', 'l']",7,0.05000000074505806,0.0,1118.2655029296875,"['l', 'space']",2.1874561309814453,231.0
"['s', 'f']",lattice,233,img/target_11.png,1,"['j', 'l']",8,0.05000000074505806,0.0,1126.44921875,"['j', 'l']",0.6110410690307617,232.0
"['a', 's']",lattice,234,img/target_6.png,1,"['space', 'j']",9,0.05000000074505806,0.0,1130.6004638671875,"['j', 'space']",2.347896099090576,233.0
"['d', 'space']",lattice,235,img/target_14.png,1,"['k', 'semicolon']",0,0.05000000074505806,1.0,1142.6016845703125,"['k', 'semicolon']",6.17795467376709,234.0
"['s', 'd']",lattice,236,img/target_10.png,1,"['j', 'k']",1,0.05000000074505806,1.0,1148.8682861328125,"['j', 'k']",2.663271903991699,235.0
"['d', 'space']",lattice,237,img/target_14.png,1,"['k', 'semicolon']",0,0.05000000074505806,1.0,1151.6361083984375,"['k', 'semicolon']",3.920151948928833,236.0
"['s', 'd']",lattice,238,img/target_10.png,1,"['j', 'k']",1,0.05000000074505806,1.0,1155.654052734375,"['j', 'k']",1.549656867980957,237.0
"['f', 'space']",lattice,239,img/target_15.png,1,"['l', 'semicolon']",3,0.05000000074505806,1.0,1157.3021240234375,"['l', 'semicolon']",1.693084955215454,238.0
"['s', 'd']",lattice,240,img/target_10.png,1,"['j', 'k']",1,0.05000000074505806,1.0,1159.0867919921875,"['j', 'k']",1.9893598556518555,239.0
"['a', 's']",lattice,241,img/target_6.png,1,"['space', 'j']",9,0.05000000074505806,1.0,1161.1695556640625,"['j', 'space']",1.8992938995361328,240.0
"['s', 'f']",lattice,242,img/target_11.png,1,"['j', 'l']",8,0.05000000074505806,0.0,1163.1707763671875,"['j', 'l']",2.0975451469421387,241.0
"['d', 'space']",lattice,243,img/target_14.png,1,"['k', 'semicolon']",0,0.05000000074505806,1.0,1167.1378173828125,"['k', 'semicolon']",2.0735859870910645,242.0
"['s', 'd']",lattice,244,img/target_10.png,1,"['j', 'k']",1,0.05000000074505806,1.0,1169.3043212890625,"['j', 'k']",1.3148808479309082,243.0
"['a', 's']",lattice,245,img/target_6.png,1,"['space', 'j']",9,0.05000000074505806,1.0,1170.70556640625,"['j', 'space']",1.4828870296478271,244.0
"['a', 'f']",lattice,246,img/target_8.png,1,"['space', 'l']",7,0.05000000074505806,1.0,1172.2882080078125,"['l', 'space']",1.4124841690063477,245.0
"['a', 'space']",lattice,247,img/target_9.png,1,"['space', 'semicolon']",6,0.05000000074505806,1.0,1173.80517578125,"['semicolon', 'space']",1.1978321075439453,246.0
"['s', 'space']",lattice,248,img/target_12.png,1,"['j', 'semicolon']",4,0.05000000074505806,1.0,1175.1048583984375,"['j', 'semicolon']",4.011863708496094,247.0
"['a', 'space']",lattice,249,img/target_9.png,1,"['space', 'semicolon']",6,0.05000000074505806,0.0,1179.205078125,"['semicolon', 'space']",1.8932969570159912,248.0
"['a', 'f']",lattice,250,img/target_8.png,1,"['space', 'l']",7,0.05000000074505806,0.0,1187.1229248046875,"['l', 'space']",2.1374220848083496,249.0
"['s', 'f']",lattice,251,img/target_11.png,1,"['j', 'l']",8,0.05000000074505806,1.0,1190.15576171875,"['j', 'l']",1.6800100803375244,250.0
"['a', 'space']",lattice,252,img/target_9.png,1,"['space', 'semicolon']",6,0.05000000074505806,0.0,1191.9237060546875,"['semicolon', 'space']",1.7663500308990479,251.0
"['s', 'f']",lattice,253,img/target_11.png,1,"['j', 'l']",8,0.05000000074505806,0.0,1196.6065673828125,"['j', 'l']",2.659442901611328,252.0
"['a', 'space']",lattice,254,img/target_9.png,1,"['space', 'semicolon']",6,0.05000000074505806,0.0,1204.9071044921875,"['semicolon', 'space']",9.494590759277344,253.0
"['d', 'f']",lattice,255,img/target_13.png,1,"['k', 'l']",5,0.05000000074505806,1.0,1265.8646240234375,"['k', 'l']",2.0630650520324707,254.0
"['s', 'space']",lattice,256,img/target_12.png,1,"['j', 'semicolon']",4,0.05000000074505806,1.0,1268.0296630859375,"['j', 'semicolon']",3.5219109058380127,255.0
"['d', 'f']",lattice,257,img/target_13.png,1,"['k', 'l']",5,0.05000000074505806,1.0,1271.6474609375,"['k', 'l']",1.6563458442687988,256.0
"['f', 'space']",lattice,258,img/target_15.png,1,"['l', 'semicolon']",3,0.05000000074505806,1.0,1273.400390625,"['l', 'semicolon']",1.6076529026031494,257.0
"['a', 'd']",lattice,259,img/target_7.png,1,"['space', 'k']",2,0.05000000074505806,1.0,1275.101318359375,"['k', 'space']",2.4274981021881104,258.0
"['d', 'space']",lattice,260,img/target_14.png,1,"['k', 'semicolon']",0,0.05000000074505806,1.0,1277.6309814453125,"['k', 'semicolon']",3.6175758838653564,259.0
"['a', 's']",lattice,261,img/target_6.png,1,"['space', 'j']",9,0.05000000074505806,1.0,1281.3494873046875,"['j', 'space']",2.186800956726074,260.0
"['d', 'space']",lattice,262,img/target_14.png,1,"['k', 'semicolon']",0,0.05000000074505806,1.0,1283.632080078125,"['k', 'semicolon']",3.104627847671509,261.0
"['a', 'd']",lattice,263,img/target_7.png,1,"['space', 'k']",2,0.05000000074505806,0.0,1286.8323974609375,"['k', 'space']",3.174875020980835,262.0
"['s', 'd']",lattice,264,img/target_10.png,1,"['j', 'k']",1,0.05000000074505806,1.0,1290.9844970703125,"['j', 'k']",1.366999864578247,263.0
"['a', 'd']",lattice,265,img/target_7.png,1,"['space', 'k']",2,0.05000000074505806,1.0,1292.4495849609375,"['k', 'space']",1.3033218383789062,264.0
"['s', 'd']",lattice,266,img/target_10.png,1,"['j', 'k']",1,0.05000000074505806,1.0,1293.84912109375,"['j', 'k']",1.2136330604553223,265.0
"['f', 'space']",lattice,267,img/target_15.png,1,"['l', 'semicolon']",3,0.05000000074505806,1.0,1295.166748046875,"['l', 'semicolon']",1.5841820240020752,266.0
"['s', 'd']",lattice,268,img/target_10.png,1,"['j', 'k']",1,0.05000000074505806,1.0,1296.849853515625,"['j', 'k']",1.55820894241333,267.0
"['d', 'space']",lattice,269,img/target_14.png,1,"['k', 'semicolon']",0,0.05000000074505806,0.0,1298.4998779296875,"['k', 'semicolon']",1.8829050064086914,268.0
"['a', 's']",lattice,270,img/target_6.png,1,"['space', 'j']",9,0.05000000074505806,1.0,1303.0167236328125,"['j', 'space']",2.0070221424102783,269.0
"['s', 'f']",lattice,271,img/target_11.png,1,"['j', 'l']",8,0.05000000074505806,0.0,1305.1173095703125,"['j', 'l']",1.4747610092163086,270.0
"['d', 'space']",lattice,272,img/target_14.png,1,"['k', 'semicolon']",0,0.05000000074505806,0.0,1309.46728515625,"['k', 'semicolon']",1.6041579246520996,271.0
"['s', 'f']",lattice,273,img/target_11.png,1,"['j', 'l']",8,0.05000000074505806,1.0,1314.55126953125,"['j', 'l']",1.5754890441894531,272.0
"['a', 'space']",lattice,274,img/target_9.png,1,"['space', 'semicolon']",6,0.05000000074505806,0.0,1316.222412109375,"['semicolon', 'space']",2.0815250873565674,273.0
"['s', 'space']",lattice,275,img/target_12.png,1,"['j', 'semicolon']",4,0.05000000074505806,0.0,1339.8382568359375,"['j', 'semicolon']",2.8711869716644287,274.0
"['a', 'd']",lattice,276,img/target_7.png,1,"['space', 'k']",2,0.05000000074505806,1.0,1368.5751953125,"['k', 'space']",3.4787440299987793,275.0
"['s', 'd']",lattice,277,img/target_10.png,1,"['j', 'k']",1,0.05000000074505806,1.0,1372.1573486328125,"['j', 'k']",1.8236920833587646,276.0
"['d', 'space']",lattice,278,img/target_14.png,1,"['k', 'semicolon']",0,0.05000000074505806,0.0,1374.0733642578125,"['k', 'semicolon']",5.020602226257324,277.0
"['s', 'f']",lattice,279,img/target_11.png,1,"['j', 'l']",8,0.05000000074505806,1.0,1379.5413818359375,"['j', 'l']",4.520621299743652,278.0
"['a', 's']",lattice,280,img/target_6.png,1,"['space', 'j']",9,0.05000000074505806,1.0,1384.158203125,"['j', 'space']",1.7417809963226318,279.0
"['d', 'space']",lattice,281,img/target_14.png,1,"['k', 'semicolon']",0,0.05000000074505806,1.0,1385.9913330078125,"['k', 'semicolon']",2.8844401836395264,280.0
"['s', 'f']",lattice,282,img/target_11.png,1,"['j', 'l']",8,0.05000000074505806,1.0,1388.9755859375,"['j', 'l']",2.1567702293395996,281.0
"['d', 'space']",lattice,283,img/target_14.png,1,"['k', 'semicolon']",0,0.05000000074505806,1.0,1391.2274169921875,"['k', 'semicolon']",3.3217220306396484,282.0
"['a', 's']",lattice,284,img/target_6.png,1,"['space', 'j']",9,0.05000000074505806,1.0,1394.642822265625,"['j', 'space']",2.0085809230804443,283.0
"['s', 'd']",lattice,285,img/target_10.png,1,"['j', 'k']",1,0.05000000074505806,1.0,1396.743896484375,"['j', 'k']",1.9330620765686035,284.0
"['d', 'space']",lattice,286,img/target_14.png,1,"['k', 'semicolon']",0,0.05000000074505806,1.0,1398.7762451171875,"['k', 'semicolon']",2.0123610496520996,285.0
"['a', 'd']",lattice,287,img/target_7.png,1,"['space', 'k']",2,0.05000000074505806,0.0,1400.878173828125,"['k', 'space']",2.5421388149261475,286.0
"['d', 'space']",lattice,288,img/target_14.png,1,"['k', 'semicolon']",0,0.05000000074505806,1.0,1422.8123779296875,"['k', 'semicolon']",2.566119909286499,287.0
"['a', 's']",lattice,289,img/target_6.png,1,"['space', 'j']",9,0.05000000074505806,1.0,1425.4791259765625,"['j', 'space']",1.6844348907470703,288.0
"['s', 'd']",lattice,290,img/target_10.png,1,"['j', 'k']",1,0.05000000074505806,1.0,1427.263916015625,"['j', 'k']",1.1641459465026855,289.0
"['d', 'space']",lattice,291,img/target_14.png,1,"['k', 'semicolon']",0,0.05000000074505806,1.0,1428.529052734375,"['k', 'semicolon']",1.8189258575439453,290.0
"['s', 'd']",lattice,292,img/target_10.png,1,"['j', 'k']",1,0.05000000074505806,1.0,1430.4466552734375,"['j', 'k']",1.4131479263305664,291.0
"['f', 'space']",lattice,293,img/target_15.png,1,"['l', 'semicolon']",3,0.05000000074505806,1.0,1431.96484375,"['l', 'semicolon']",2.0695788860321045,292.0
"['s', 'space']",lattice,294,img/target_12.png,1,"['j', 'semicolon']",4,0.05000000074505806,1.0,1434.1322021484375,"['j', 'semicolon']",2.798945903778076,293.0
"['a', 'd']",lattice,295,img/target_7.png,1,"['space', 'k']",2,0.05000000074505806,1.0,1437.031494140625,"['k', 'space']",1.9710841178894043,294.0
"['s', 'space']",lattice,296,img/target_12.png,1,"['j', 'semicolon']",4,0.05000000074505806,0.0,1439.096923828125,"['j', 'semicolon']",1.899022102355957,295.0
"['a', 'd']",lattice,297,img/target_7.png,1,"['space', 'k']",2,0.05000000074505806,1.0,1442.5819091796875,"['k', 'space']",1.7499511241912842,296.0
"['s', 'd']",lattice,298,img/target_10.png,1,"['j', 'k']",1,0.05000000074505806,1.0,1444.4306640625,"['j', 'k']",1.5878360271453857,297.0
"['a', 'd']",lattice,299,img/target_7.png,1,"['space', 'k']",2,0.05000000074505806,1.0,1446.11376953125,"['k', 'space']",1.2881889343261719,298.0
"['s', 'space']",lattice,300,img/target_12.png,1,"['j', 'semicolon']",4,0.05000000074505806,1.0,1447.498046875,"['j', 'semicolon']",2.7046289443969727,299.0
"['d', 'f']",lattice,301,img/target_13.png,1,"['k', 'l']",5,0.05000000074505806,0.0,1450.2994384765625,"['k', 'l']",1.6141738891601562,300.0
"['a', 'f']",lattice,302,img/target_8.png,1,"['space', 'l']",7,0.05000000074505806,1.0,1453.3485107421875,"['l', 'space']",1.7904748916625977,301.0
"['d', 'f']",lattice,303,img/target_13.png,1,"['k', 'l']",5,0.05000000074505806,1.0,1455.2313232421875,"['k', 'l']",1.322361946105957,302.0
"['f', 'space']",lattice,304,img/target_15.png,1,"['l', 'semicolon']",3,0.05000000074505806,1.0,1456.6512451171875,"['l', 'semicolon']",0.9039180278778076,303.0
"['s', 'space']",lattice,305,img/target_12.png,1,"['j', 'semicolon']",4,0.05000000074505806,1.0,1457.648681640625,"['j', 'semicolon']",1.8897719383239746,304.0
"['a', 'd']",lattice,306,img/target_7.png,1,"['space', 'k']",2,0.05000000074505806,1.0,1459.632080078125,"['k', 'space']",1.6346170902252197,305.0
"['s', 'space']",lattice,307,img/target_12.png,1,"['j', 'semicolon']",4,0.05000000074505806,0.0,1461.3663330078125,"['j', 'semicolon']",2.2363340854644775,306.0
"['d', 'f']",lattice,308,img/target_13.png,1,"['k', 'l']",5,0.05000000074505806,1.0,1465.0494384765625,"['k', 'l']",1.3290448188781738,307.0
"['a', 'space']",lattice,309,img/target_9.png,1,"['space', 'semicolon']",6,0.05000000074505806,0.0,1466.4832763671875,"['semicolon', 'space']",0.8617160320281982,308.0
"['s', 'f']",lattice,310,img/target_11.png,1,"['j', 'l']",8,0.05000000074505806,0.0,1531.2064208984375,"['j', 'l']",3.2404088973999023,309.0
"['a', 's']",lattice,311,img/target_6.png,1,"['space', 'j']",9,0.05000000074505806,0.0,1538.090087890625,"['j', 'space']",1.7663421630859375,310.0
"['a', 'f']",lattice,312,img/target_8.png,1,"['space', 'l']",7,0.05000000074505806,1.0,1541.624267578125,"['l', 'space']",1.3103880882263184,311.0
"['d', 'f']",lattice,313,img/target_13.png,1,"['k', 'l']",5,0.05000000074505806,1.0,1543.0233154296875,"['k', 'l']",1.2880830764770508,312.0
"['a', 'space']",lattice,314,img/target_9.png,1,"['space', 'semicolon']",6,0.05000000074505806,0.0,1544.4073486328125,"['semicolon', 'space']",1.2879230976104736,313.0
"['s', 'space']",lattice,315,img/target_12.png,1,"['j', 'semicolon']",4,0.05000000074505806,0.0,1547.11328125,"['j', 'semicolon']",1.2845499515533447,314.0
"['a', 'd']",lattice,316,img/target_7.png,1,"['space', 'k']",2,0.05000000074505806,0.0,1551.7081298828125,"['k', 'space']",1.6259770393371582,315.0
"['d', 'space']",lattice,317,img/target_14.png,1,"['k', 'semicolon']",0,0.05000000074505806,1.0,1554.6094970703125,"['k', 'semicolon']",1.8220939636230469,316.0
"['a', 'd']",lattice,318,img/target_7.png,1,"['space', 'k']",2,0.05000000074505806,1.0,1556.5250244140625,"['k', 'space']",1.3929200172424316,317.0
"['f', 'space']",lattice,319,img/target_15.png,1,"['l', 'semicolon']",3,0.05000000074505806,1.0,1558.008544921875,"['l', 'semicolon']",1.3255469799041748,318.0
"['a', 'd']",lattice,320,img/target_7.png,1,"['space', 'k']",2,0.05000000074505806,1.0,1559.424560546875,"['k', 'space']",1.1671860218048096,319.0
"['s', 'space']",lattice,321,img/target_12.png,1,"['j', 'semicolon']",4,0.05000000074505806,1.0,1560.6915283203125,"['j', 'semicolon']",1.4344618320465088,320.0
"['f', 'space']",lattice,322,img/target_15.png,1,"['l', 'semicolon']",3,0.05000000074505806,1.0,1562.2264404296875,"['l', 'semicolon']",1.1556949615478516,321.0
"['s', 'space']",lattice,323,img/target_12.png,1,"['j', 'semicolon']",4,0.05000000074505806,0.0,1563.47607421875,"['j', 'semicolon']",0.763390064239502,322.0
"['a', 'd']",lattice,324,img/target_7.png,1,"['space', 'k']",2,0.05000000074505806,1.0,1565.65869140625,"['k', 'space']",1.6762371063232422,323.0
"['d', 'space']",lattice,325,img/target_14.png,1,"['k', 'semicolon']",0,0.05000000074505806,1.0,1567.42724609375,"['k', 'semicolon']",1.7233350276947021,324.0
"['s', 'f']",lattice,326,img/target_11.png,1,"['j', 'l']",8,0.05000000074505806,0.0,1569.2427978515625,"['j', 'l']",1.506721019744873,325.0
"['a', 's']",lattice,327,img/target_6.png,1,"['space', 'j']",9,0.05000000074505806,0.0,1575.5601806640625,"['j', 'space']",0.5411901473999023,326.0
"['d', 'space']",lattice,328,img/target_14.png,1,"['k', 'semicolon']",0,0.05000000074505806,1.0,1577.5634765625,"['k', 'semicolon']",2.7150940895080566,327.0
"['s', 'f']",lattice,329,img/target_11.png,1,"['j', 'l']",8,0.05000000074505806,1.0,1580.376953125,"['j', 'l']",1.5883848667144775,328.0
"['a', 'f']",lattice,330,img/target_8.png,1,"['space', 'l']",7,0.05000000074505806,0.0,1582.06103515625,"['l', 'space']",3.024271011352539,329.0
"['s', 'f']",lattice,331,img/target_11.png,1,"['j', 'l']",8,0.05000000074505806,1.0,1587.0941162109375,"['j', 'l']",2.5110559463500977,330.0
"['a', 's']",lattice,332,img/target_6.png,1,"['space', 'j']",9,0.05000000074505806,1.0,1589.6953125,"['j', 'space']",1.1816210746765137,331.0
"['s', 'f']",lattice,333,img/target_11.png,1,"['j', 'l']",8,0.05000000074505806,1.0,1590.9781494140625,"['j', 'l']",1.1323919296264648,332.0
"['a', 'f']",lattice,334,img/target_8.png,1,"['space', 'l']",7,0.05000000074505806,0.0,1592.2125244140625,"['l', 'space']",1.4975159168243408,333.0
"['a', 'space']",lattice,335,img/target_9.png,1,"['space', 'semicolon']",6,0.05000000074505806,0.0,1596.3623046875,"['semicolon', 'space']",1.3476529121398926,334.0
"['s', 'space']",lattice,336,img/target_12.png,1,"['j', 'semicolon']",4,0.05000000074505806,1.0,1605.6153564453125,"['j', 'semicolon']",2.582857847213745,335.0
"['a', 'd']",lattice,337,img/target_7.png,1,"['space', 'k']",2,0.05000000074505806,0.0,1608.296875,"['k', 'space']",2.357422113418579,336.0
"['d', 'space']",lattice,338,img/target_14.png,1,"['k', 'semicolon']",0,0.05000000074505806,1.0,1612.130126953125,"['k', 'semicolon']",1.4991939067840576,337.0
"['a', 's']",lattice,339,img/target_6.png,1,"['space', 'j']",9,0.05000000074505806,0.0,1613.71337890625,"['j', 'space']",1.1867218017578125,338.0
"['s', 'd']",lattice,340,img/target_10.png,1,"['j', 'k']",1,0.05000000074505806,1.0,1615.6314697265625,"['j', 'k']",2.8702800273895264,339.0
"['a', 'd']",lattice,341,img/target_7.png,1,"['space', 'k']",2,0.05000000074505806,0.0,1618.599609375,"['k', 'space']",1.1414470672607422,340.0
"['f', 'space']",lattice,342,img/target_15.png,1,"['l', 'semicolon']",3,0.05000000074505806,0.0,1626.0811767578125,"['l', 'semicolon']",1.9633510112762451,341.0
"['d', 'f']",lattice,343,img/target_13.png,1,"['k', 'l']",5,0.05000000074505806,1.0,1630.315673828125,"['k', 'l']",1.8731319904327393,342.0
"['s', 'space']",lattice,344,img/target_12.png,1,"['j', 'semicolon']",4,0.05000000074505806,0.0,1632.2825927734375,"['j', 'semicolon']",5.448952674865723,343.0
"['f', 'space']",lattice,345,img/target_15.png,1,"['l', 'semicolon']",3,0.05000000074505806,1.0,1657.468017578125,"['l', 'semicolon']",2.110741138458252,344.0
"['a', 'd']",lattice,346,img/target_7.png,1,"['space', 'k']",2,0.05000000074505806,1.0,1659.66845703125,"['k', 'space']",1.8553659915924072,345.0
"['s', 'space']",lattice,347,img/target_12.png,1,"['j', 'semicolon']",4,0.05000000074505806,1.0,1661.6177978515625,"['j', 'semicolon']",1.6406350135803223,346.0
"['a', 'space']",lattice,348,img/target_9.png,1,"['space', 'semicolon']",6,0.05000000074505806,1.0,1663.3519287109375,"['semicolon', 'space']",2.7475221157073975,347.0
"['s', 'f']",lattice,349,img/target_11.png,1,"['j', 'l']",8,0.05000000074505806,1.0,1666.1849365234375,"['j', 'l']",2.8103079795837402,348.0
"['a', 'space']",lattice,350,img/target_9.png,1,"['space', 'semicolon']",6,0.05000000074505806,1.0,1669.088134765625,"['semicolon', 'space']",1.7160189151763916,349.0
"['s', 'f']",lattice,351,img/target_11.png,1,"['j', 'l']",8,0.05000000074505806,1.0,1670.9027099609375,"['j', 'l']",1.644723892211914,350.0
"['a', 'f']",lattice,352,img/target_8.png,1,"['space', 'l']",7,0.05000000074505806,0.0,1672.641357421875,"['l', 'space']",1.1211559772491455,351.0
"['a', 's']",lattice,353,img/target_6.png,1,"['space', 'j']",9,0.05000000074505806,1.0,1682.990234375,"['j', 'space']",1.9085562229156494,352.0
"['d', 'space']",lattice,354,img/target_14.png,1,"['k', 'semicolon']",0,0.05000000074505806,0.0,1684.990234375,"['k', 'semicolon']",1.059473991394043,353.0
"['a', 's']",lattice,355,img/target_6.png,1,"['space', 'j']",9,0.05000000074505806,0.0,1688.1268310546875,"['j', 'space']",1.235490083694458,354.0
"['s', 'f']",lattice,356,img/target_11.png,1,"['j', 'l']",8,0.05000000074505806,0.0,1691.9903564453125,"['j', 'l']",2.669044017791748,355.0
"['a', 'space']",lattice,357,img/target_9.png,1,"['space', 'semicolon']",6,0.05000000074505806,0.0,1698.125,"['semicolon', 'space']",2.076618194580078,356.0
"['s', 'space']",lattice,358,img/target_12.png,1,"['j', 'semicolon']",4,0.05000000074505806,0.0,1717.19287109375,"['j', 'semicolon']",1.6243000030517578,357.0
"['f', 'space']",lattice,359,img/target_15.png,1,"['l', 'semicolon']",3,0.05000000074505806,1.0,1722.6942138671875,"['l', 'semicolon']",11.074542045593262,358.0
"['s', 'space']",lattice,360,img/target_12.png,1,"['j', 'semicolon']",4,0.05000000074505806,0.0,1733.85888671875,"['j', 'semicolon']",0.9088950157165527,359.0
"['d', 'f']",lattice,361,img/target_13.png,1,"['k', 'l']",5,0.05000000074505806,1.0,1739.308837890625,"['k', 'l']",2.6125218868255615,360.0
"['a', 'space']",lattice,362,img/target_9.png,1,"['space', 'semicolon']",6,0.05000000074505806,0.0,1742.0096435546875,"['semicolon', 'space']",0.7353339195251465,361.0
"['d', 'f']",lattice,363,img/target_13.png,1,"['k', 'l']",5,0.05000000074505806,1.0,1746.0101318359375,"['k', 'l']",1.318638801574707,362.0
"['s', 'space']",lattice,364,img/target_12.png,1,"['j', 'semicolon']",4,0.05000000074505806,1.0,1747.4263916015625,"['j', 'semicolon']",3.957595109939575,363.0
"['a', 'space']",lattice,365,img/target_9.png,1,"['space', 'semicolon']",6,0.05000000074505806,1.0,1751.4775390625,"['semicolon', 'space']",1.3711321353912354,364.0
"['a', 'f']",lattice,366,img/target_8.png,1,"['space', 'l']",7,0.05000000074505806,0.0,1752.943603515625,"['l', 'space']",1.5996060371398926,365.0
"['s', 'f']",lattice,367,img/target_11.png,1,"['j', 'l']",8,0.05000000074505806,1.0,1758.4945068359375,"['j', 'l']",1.7773370742797852,366.0
"['a', 'f']",lattice,368,img/target_8.png,1,"['space', 'l']",7,0.05000000074505806,1.0,1760.3616943359375,"['l', 'space']",0.965399980545044,367.0
"['a', 'space']",lattice,369,img/target_9.png,1,"['space', 'semicolon']",6,0.05000000074505806,0.0,1761.42822265625,"['semicolon', 'space']",1.2348451614379883,368.0
"['d', 'f']",lattice,370,img/target_13.png,1,"['k', 'l']",5,0.05000000074505806,1.0,1764.578125,"['k', 'l']",1.172874927520752,369.0
"['a', 'f']",lattice,371,img/target_8.png,1,"['space', 'l']",7,0.05000000074505806,0.0,1765.844970703125,"['l', 'space']",1.30706787109375,370.0
"['a', 's']",lattice,372,img/target_6.png,1,"['space', 'j']",9,0.05000000074505806,0.0,1793.5479736328125,"['j', 'space']",0.7221729755401611,371.0
"['a', 'f']",lattice,373,img/target_8.png,1,"['space', 'l']",7,0.05000000074505806,0.0,1794.997314453125,"['l', 'space']",0.40257716178894043,372.0
"['a', 'space']",lattice,374,img/target_9.png,1,"['space', 'semicolon']",6,0.05000000074505806,1.0,1797.5645751953125,"['semicolon', 'space']",1.3382329940795898,373.0
"['a', 'f']",lattice,375,img/target_8.png,1,"['space', 'l']",7,0.05000000074505806,1.0,1798.998779296875,"['l', 'space']",1.0562810897827148,374.0
"['a', 'space']",lattice,376,img/target_9.png,1,"['space', 'semicolon']",6,0.05000000074505806,0.0,1800.14794921875,"['semicolon', 'space']",1.0839550495147705,375.0
"['s', 'space']",lattice,377,img/target_12.png,1,"['j', 'semicolon']",4,0.05000000074505806,1.0,1833.87158203125,"['j', 'semicolon']",7.814175605773926,376.0
"['d', 'f']",lattice,378,img/target_13.png,1,"['k', 'l']",5,0.05000000074505806,1.0,1841.7852783203125,"['k', 'l']",2.3170080184936523,377.0
"['a', 'f']",lattice,379,img/target_8.png,1,"['space', 'l']",7,0.05000000074505806,1.0,1844.202880859375,"['l', 'space']",2.2986719608306885,378.0
"['d', 'f']",lattice,380,img/target_13.png,1,"['k', 'l']",5,0.05000000074505806,1.0,1846.603515625,"['k', 'l']",1.994089126586914,379.0
"['f', 'space']",lattice,381,img/target_15.png,1,"['l', 'semicolon']",3,0.05000000074505806,1.0,1848.6881103515625,"['l', 'semicolon']",1.8772339820861816,380.0
"['a', 'd']",lattice,382,img/target_7.png,1,"['space', 'k']",2,0.05000000074505806,1.0,1850.66943359375,"['k', 'space']",2.295536994934082,381.0
"['f', 'space']",lattice,383,img/target_15.png,1,"['l', 'semicolon']",3,0.05000000074505806,1.0,1853.1044921875,"['l', 'semicolon']",1.653097152709961,382.0
"['s', 'space']",lattice,384,img/target_12.png,1,"['j', 'semicolon']",4,0.05000000074505806,1.0,1854.853271484375,"['j', 'semicolon']",2.1908740997314453,383.0
"['f', 'space']",lattice,385,img/target_15.png,1,"['l', 'semicolon']",3,0.05000000074505806,1.0,1857.137939453125,"['l', 'semicolon']",1.6499919891357422,384.0
"['d', 'f']",lattice,386,img/target_13.png,1,"['k', 'l']",5,0.05000000074505806,1.0,1858.8873291015625,"['k', 'l']",1.3323769569396973,385.0
"['a', 'f']",lattice,387,img/target_8.png,1,"['space', 'l']",7,0.05000000074505806,0.0,1860.3245849609375,"['l', 'space']",1.5834109783172607,386.0
"['a', 'space']",lattice,388,img/target_9.png,1,"['space', 'semicolon']",6,0.05000000074505806,1.0,1863.605712890625,"['semicolon', 'space']",1.759896993637085,387.0
"['s', 'f']",lattice,389,img/target_11.png,1,"['j', 'l']",8,0.05000000074505806,1.0,1865.4544677734375,"['j', 'l']",1.9414148330688477,388.0
"['a', 'space']",lattice,390,img/target_9.png,1,"['space', 'semicolon']",6,0.05000000074505806,1.0,1867.48828125,"['semicolon', 'space']",2.0754191875457764,389.0
"['s', 'space']",lattice,391,img/target_12.png,1,"['j', 'semicolon']",4,0.05000000074505806,1.0,1869.6549072265625,"['j', 'semicolon']",2.9818689823150635,390.0
"['a', 'd']",lattice,392,img/target_7.png,1,"['space', 'k']",2,0.05000000074505806,1.0,1872.7220458984375,"['k', 'space']",2.8813579082489014,391.0
"['s', 'd']",lattice,393,img/target_10.png,1,"['j', 'k']",1,0.05000000074505806,1.0,1875.7056884765625,"['j', 'k']",1.6672470569610596,392.0
"['a', 'd']",lattice,394,img/target_7.png,1,"['space', 'k']",2,0.05000000074505806,1.0,1877.47216796875,"['k', 'space']",2.412839889526367,393.0
"['d', 'space']",lattice,395,img/target_14.png,1,"['k', 'semicolon']",0,0.05000000074505806,1.0,1879.9896240234375,"['k', 'semicolon']",3.045596122741699,394.0
"['a', 'd']",lattice,396,img/target_7.png,1,"['space', 'k']",2,0.05000000074505806,0.0,1883.123291015625,"['k', 'space']",3.559800148010254,395.0
"['d', 'space']",lattice,397,img/target_14.png,1,"['k', 'semicolon']",0,0.05000000074505806,1.0,1887.523681640625,"['k', 'semicolon']",2.529149055480957,396.0
"['s', 'd']",lattice,398,img/target_10.png,1,"['j', 'k']",1,0.05000000074505806,1.0,1890.15673828125,"['j', 'k']",1.7179510593414307,397.0
"['f', 'space']",lattice,399,img/target_15.png,1,"['l', 'semicolon']",3,0.05000000074505806,1.0,1891.9752197265625,"['l', 'semicolon']",1.5016191005706787,398.0
"['d', 'f']",lattice,400,img/target_13.png,1,"['k', 'l']",5,0.05000000074505806,1.0,1893.5740966796875,"['k', 'l']",1.518509864807129,399.0
"['a', 'space']",lattice,401,img/target_9.png,1,"['space', 'semicolon']",6,0.05000000074505806,0.0,1895.1903076171875,"['semicolon', 'space']",1.1164391040802002,400.0
"['s', 'f']",lattice,402,img/target_11.png,1,"['j', 'l']",8,0.05000000074505806,0.0,1900.2744140625,"['j', 'l']",0.7043089866638184,401.0
"['d', 'space']",lattice,403,img/target_14.png,1,"['k', 'semicolon']",0,0.05000000074505806,0.0,1904.54150390625,"['k', 'semicolon']",2.1091859340667725,402.0
"['s', 'd']",lattice,404,img/target_10.png,1,"['j', 'k']",1,0.05000000074505806,1.0,1908.0118408203125,"['j', 'k']",1.4623050689697266,403.0
"['f', 'space']",lattice,405,img/target_15.png,1,"['l', 'semicolon']",3,0.05000000074505806,1.0,1909.577880859375,"['l', 'semicolon']",3.4974889755249023,404.0
"['a', 'd']",lattice,406,img/target_7.png,1,"['space', 'k']",2,0.05000000074505806,0.0,1913.176513671875,"['k', 'space']",4.049518585205078,405.0
"['f', 'space']",lattice,407,img/target_15.png,1,"['l', 'semicolon']",3,0.05000000074505806,1.0,1918.19482421875,"['l', 'semicolon']",2.015169143676758,406.0
"['d', 'f']",lattice,408,img/target_13.png,1,"['k', 'l']",5,0.05000000074505806,1.0,1920.3101806640625,"['k', 'l']",1.2772841453552246,407.0
"['a', 'space']",lattice,409,img/target_9.png,1,"['space', 'semicolon']",6,0.05000000074505806,0.0,1921.67724609375,"['semicolon', 'space']",2.0382931232452393,408.0
"['s', 'f']",lattice,410,img/target_11.png,1,"['j', 'l']",8,0.05000000074505806,1.0,1925.714599609375,"['j', 'l']",3.638979911804199,409.0
"['d', 'space']",lattice,411,img/target_14.png,1,"['k', 'semicolon']",0,0.05000000074505806,0.0,1929.4451904296875,"['k', 'semicolon']",1.732403039932251,410.0
"['s', 'd']",lattice,412,img/target_10.png,1,"['j', 'k']",1,0.05000000074505806,1.0,1943.7625732421875,"['j', 'k']",1.7907140254974365,411.0
"['a', 'd']",lattice,413,img/target_7.png,1,"['space', 'k']",2,0.05000000074505806,1.0,1945.6453857421875,"['k', 'space']",1.491657018661499,412.0
"['s', 'space']",lattice,414,img/target_12.png,1,"['j', 'semicolon']",4,0.05000000074505806,1.0,1947.23291015625,"['j', 'semicolon']",1.5522000789642334,413.0
"['a', 'd']",lattice,415,img/target_7.png,1,"['space', 'k']",2,0.05000000074505806,1.0,1948.87939453125,"['k', 'space']",3.8737168312072754,414.0
"['f', 'space']",lattice,416,img/target_15.png,1,"['l', 'semicolon']",3,0.05000000074505806,0.0,1952.850341796875,"['l', 'semicolon']",3.1194138526916504,415.0
"['a', 'd']",lattice,417,img/target_7.png,1,"['space', 'k']",2,0.05000000074505806,1.0,1958.663330078125,"['k', 'space']",5.602687835693359,416.0
"['s', 'd']",lattice,418,img/target_10.png,1,"['j', 'k']",1,0.05000000074505806,0.0,1964.3643798828125,"['j', 'k']",2.1081149578094482,417.0
"['a', 's']",lattice,419,img/target_6.png,1,"['space', 'j']",9,0.05000000074505806,1.0,1969.164306640625,"['j', 'space']",1.4922001361846924,418.0
"['s', 'f']",lattice,420,img/target_11.png,1,"['j', 'l']",8,0.05000000074505806,1.0,1970.7484130859375,"['j', 'l']",1.4035680294036865,419.0
"['d', 'space']",lattice,421,img/target_14.png,1,"['k', 'semicolon']",0,0.05000000074505806,1.0,1972.2529296875,"['k', 'semicolon']",1.4913561344146729,420.0
"['a', 's']",lattice,422,img/target_6.png,1,"['space', 'j']",9,0.05000000074505806,1.0,1973.8486328125,"['j', 'space']",1.7111217975616455,421.0
"['a', 'f']",lattice,423,img/target_8.png,1,"['space', 'l']",7,0.05000000074505806,0.0,1975.6510009765625,"['l', 'space']",1.3009638786315918,422.0
"['d', 'f']",lattice,424,img/target_13.png,1,"['k', 'l']",5,,,,'--',,423.0
"['s', 'space']",lattice,425,img/target_12.png,1,"['j', 'semicolon']",4,,,,'--',,
"['a', 'space']",lattice,426,img/target_9.png,1,"['space', 'semicolon']",6,,,,'--',,
"['d', 'f']",lattice,427,img/target_13.png,1,"['k', 'l']",5,,,,'--',,
"['a', 'f']",lattice,428,img/target_8.png,1,"['space', 'l']",7,,,,'--',,
"['a', 's']",lattice,429,img/target_6.png,1,"['space', 'j']",9,,,,'--',,
"['d', 'space']",lattice,430,img/target_14.png,1,"['k', 'semicolon']",0,,,,'--',,
"['s', 'f']",lattice,431,img/target_11.png,1,"['j', 'l']",8,,,,'--',,
"['a', 'space']",lattice,432,img/target_9.png,1,"['space', 'semicolon']",6,,,,'--',,
"['a', 'f']",lattice,433,img/target_8.png,1,"['space', 'l']",7,,,,'--',,
"['a', 'space']",lattice,434,img/target_9.png,1,"['space', 'semicolon']",6,,,,'--',,
"['s', 'space']",lattice,435,img/target_12.png,1,"['j', 'semicolon']",4,,,,'--',,
"['d', 'f']",lattice,436,img/target_13.png,1,"['k', 'l']",5,,,,'--',,
"['s', 'space']",lattice,437,img/target_12.png,1,"['j', 'semicolon']",4,,,,'--',,
"['d', 'f']",lattice,438,img/target_13.png,1,"['k', 'l']",5,,,,'--',,
"['f', 'space']",lattice,439,img/target_15.png,1,"['l', 'semicolon']",3,,,,'--',,
"['s', 'space']",lattice,440,img/target_12.png,1,"['j', 'semicolon']",4,,,,'--',,
"['a', 'd']",lattice,441,img/target_7.png,1,"['space', 'k']",2,,,,'--',,
"['s', 'space']",lattice,442,img/target_12.png,1,"['j', 'semicolon']",4,,,,'--',,
"['a', 'd']",lattice,443,img/target_7.png,1,"['space', 'k']",2,,,,'--',,
"['d', 'space']",lattice,444,img/target_14.png,1,"['k', 'semicolon']",0,,,,'--',,
"['a', 's']",lattice,445,img/target_6.png,1,"['space', 'j']",9,,,,'--',,
"['d', 'space']",lattice,446,img/target_14.png,1,"['k', 'semicolon']",0,,,,'--',,
"['s', 'd']",lattice,447,img/target_10.png,1,"['j', 'k']",1,,,,'--',,
"['a', 's']",lattice,448,img/target_6.png,1,"['space', 'j']",9,,,,'--',,
"['d', 'space']",lattice,449,img/target_14.png,1,"['k', 'semicolon']",0,,,,'--',,
"['s', 'f']",lattice,450,img/target_11.png,1,"['j', 'l']",8,,,,'--',,
"['a', 'f']",lattice,451,img/target_8.png,1,"['space', 'l']",7,,,,'--',,
"['s', 'f']",lattice,452,img/target_11.png,1,"['j', 'l']",8,,,,'--',,
"['a', 'f']",lattice,453,img/target_8.png,1,"['space', 'l']",7,,,,'--',,
"['s', 'f']",lattice,454,img/target_11.png,1,"['j', 'l']",8,,,,'--',,
"['a', 's']",lattice,455,img/target_6.png,1,"['space', 'j']",9,,,,'--',,
"['s', 'f']",lattice,456,img/target_11.png,1,"['j', 'l']",8,,,,'--',,
"['a', 'f']",lattice,457,img/target_8.png,1,"['space', 'l']",7,,,,'--',,
"['a', 's']",lattice,458,img/target_6.png,1,"['space', 'j']",9,,,,'--',,
"['a', 'f']",lattice,459,img/target_8.png,1,"['space', 'l']",7,,,,'--',,
"['d', 'f']",lattice,460,img/target_13.png,1,"['k', 'l']",5,,,,'--',,
"['f', 'space']",lattice,461,img/target_15.png,1,"['l', 'semicolon']",3,,,,'--',,
"['s', 'd']",lattice,462,img/target_10.png,1,"['j', 'k']",1,,,,'--',,
"['a', 'd']",lattice,463,img/target_7.png,1,"['space', 'k']",2,,,,'--',,
"['d', 'space']",lattice,464,img/target_14.png,1,"['k', 'semicolon']",0,,,,'--',,
"['a', 's']",lattice,465,img/target_6.png,1,"['space', 'j']",9,,,,'--',,
"['a', 'f']",lattice,466,img/target_8.png,1,"['space', 'l']",7,,,,'--',,
"['s', 'f']",lattice,467,img/target_11.png,1,"['j', 'l']",8,,,,'--',,
"['d', 'space']",lattice,468,img/target_14.png,1,"['k', 'semicolon']",0,,,,'--',,
"['a', 's']",lattice,469,img/target_6.png,1,"['space', 'j']",9,,,,'--',,
"['s', 'd']",lattice,470,img/target_10.png,1,"['j', 'k']",1,,,,'--',,
"['d', 'space']",lattice,471,img/target_14.png,1,"['k', 'semicolon']",0,,,,'--',,
"['s', 'd']",lattice,472,img/target_10.png,1,"['j', 'k']",1,,,,'--',,
"['a', 'd']",lattice,473,img/target_7.png,1,"['space', 'k']",2,,,,'--',,
"['f', 'space']",lattice,474,img/target_15.png,1,"['l', 'semicolon']",3,,,,'--',,
"['a', 'd']",lattice,475,img/target_7.png,1,"['space', 'k']",2,,,,'--',,
"['s', 'space']",lattice,476,img/target_12.png,1,"['j', 'semicolon']",4,,,,'--',,
"['d', 'f']",lattice,477,img/target_13.png,1,"['k', 'l']",5,,,,'--',,
"['s', 'space']",lattice,478,img/target_12.png,1,"['j', 'semicolon']",4,,,,'--',,
"['a', 'space']",lattice,479,img/target_9.png,1,"['space', 'semicolon']",6,,,,'--',,
"['a', 'f']",lattice,480,img/target_8.png,1,"['space', 'l']",7,,,,'--',,
"['d', 'f']",lattice,481,img/target_13.png,1,"['k', 'l']",5,,,,'--',,
"['a', 'f']",lattice,482,img/target_8.png,1,"['space', 'l']",7,,,,'--',,
"['a', 'space']",lattice,483,img/target_9.png,1,"['space', 'semicolon']",6,,,,'--',,
"['s', 'f']",lattice,484,img/target_11.png,1,"['j', 'l']",8,,,,'--',,
"['a', 'space']",lattice,485,img/target_9.png,1,"['space', 'semicolon']",6,,,,'--',,
"['d', 'f']",lattice,486,img/target_13.png,1,"['k', 'l']",5,,,,'--',,
"['s', 'space']",lattice,487,img/target_12.png,1,"['j', 'semicolon']",4,,,,'--',,
"['a', 'space']",lattice,488,img/target_9.png,1,"['space', 'semicolon']",6,,,,'--',,
"['d', 'f']",lattice,489,img/target_13.png,1,"['k', 'l']",5,,,,'--',,
"['f', 'space']",lattice,490,img/target_15.png,1,"['l', 'semicolon']",3,,,,'--',,
"['s', 'd']",lattice,491,img/target_10.png,1,"['j', 'k']",1,,,,'--',,
"['f', 'space']",lattice,492,img/target_15.png,1,"['l', 'semicolon']",3,,,,'--',,
"['s', 'space']",lattice,493,img/target_12.png,1,"['j', 'semicolon']",4,,,,'--',,
"['f', 'space']",lattice,494,img/target_15.png,1,"['l', 'semicolon']",3,,,,'--',,
"['s', 'space']",lattice,495,img/target_12.png,1,"['j', 'semicolon']",4,,,,'--',,
"['f', 'space']",lattice,496,img/target_15.png,1,"['l', 'semicolon']",3,,,,'--',,
"['a', 'd']",lattice,497,img/target_7.png,1,"['space', 'k']",2,,,,'--',,
"['s', 'd']",lattice,498,img/target_10.png,1,"['j', 'k']",1,,,,'--',,
"['a', 'd']",lattice,499,img/target_7.png,1,"['space', 'k']",2,,,,'--',,
"['s', 'space']",lattice,500,img/target_12.png,1,"['j', 'semicolon']",4,,,,'--',,
"['d', 'f']",lattice,501,img/target_13.png,1,"['k', 'l']",5,,,,'--',,
"['a', 'f']",lattice,502,img/target_8.png,1,"['space', 'l']",7,,,,'--',,
"['s', 'f']",lattice,503,img/target_11.png,1,"['j', 'l']",8,,,,'--',,
"['a', 's']",lattice,504,img/target_6.png,1,"['space', 'j']",9,,,,'--',,
"['d', 'space']",lattice,505,img/target_14.png,1,"['k', 'semicolon']",0,,,,'--',,
"['s', 'd']",lattice,506,img/target_10.png,1,"['j', 'k']",1,,,,'--',,
"['d', 'space']",lattice,507,img/target_14.png,1,"['k', 'semicolon']",0,,,,'--',,
"['a', 'd']",lattice,508,img/target_7.png,1,"['space', 'k']",2,,,,'--',,
"['d', 'space']",lattice,509,img/target_14.png,1,"['k', 'semicolon']",0,,,,'--',,
"['a', 'd']",lattice,510,img/target_7.png,1,"['space', 'k']",2,,,,'--',,
"['d', 'space']",lattice,511,img/target_14.png,1,"['k', 'semicolon']",0,,,,'--',,
"['a', 's']",lattice,512,img/target_6.png,1,"['space', 'j']",9,,,,'--',,
"['a', 'f']",lattice,513,img/target_8.png,1,"['space', 'l']",7,,,,'--',,
"['a', 'space']",lattice,514,img/target_9.png,1,"['space', 'semicolon']",6,,,,'--',,
"['d', 'f']",lattice,515,img/target_13.png,1,"['k', 'l']",5,,,,'--',,
"['a', 'space']",lattice,516,img/target_9.png,1,"['space', 'semicolon']",6,,,,'--',,
"['s', 'f']",lattice,517,img/target_11.png,1,"['j', 'l']",8,,,,'--',,
"['d', 'space']",lattice,518,img/target_14.png,1,"['k', 'semicolon']",0,,,,'--',,
"['a', 's']",lattice,519,img/target_6.png,1,"['space', 'j']",9,,,,'--',,
"['s', 'f']",lattice,520,img/target_11.png,1,"['j', 'l']",8,,,,'--',,
"['d', 'space']",lattice,521,img/target_14.png,1,"['k', 'semicolon']",0,,,,'--',,
"['s', 'd']",lattice,522,img/target_10.png,1,"['j', 'k']",1,,,,'--',,
"['d', 'space']",lattice,523,img/target_14.png,1,"['k', 'semicolon']",0,,,,'--',,
"['s', 'd']",lattice,524,img/target_10.png,1,"['j', 'k']",1,,,,'--',,
"['f', 'space']",lattice,525,img/target_15.png,1,"['l', 'semicolon']",3,,,,'--',,
"['s', 'd']",lattice,526,img/target_10.png,1,"['j', 'k']",1,,,,'--',,
"['a', 'd']",lattice,527,img/target_7.png,1,"['space', 'k']",2,,,,'--',,
"['f', 'space']",lattice,528,img/target_15.png,1,"['l', 'semicolon']",3,,,,'--',,
"['s', 'space']",lattice,529,img/target_12.png,1,"['j', 'semicolon']",4,,,,'--',,
"['d', 'f']",lattice,530,img/target_13.png,1,"['k', 'l']",5,,,,'--',,
"['s', 'space']",lattice,531,img/target_12.png,1,"['j', 'semicolon']",4,,,,'--',,
"['f', 'space']",lattice,532,img/target_15.png,1,"['l', 'semicolon']",3,,,,'--',,
"['s', 'd']",lattice,533,img/target_10.png,1,"['j', 'k']",1,,,,'--',,
"['f', 'space']",lattice,534,img/target_15.png,1,"['l', 'semicolon']",3,,,,'--',,
"['a', 'd']",lattice,535,img/target_7.png,1,"['space', 'k']",2,,,,'--',,
"['s', 'space']",lattice,536,img/target_12.png,1,"['j', 'semicolon']",4,,,,'--',,
"['a', 'space']",lattice,537,img/target_9.png,1,"['space', 'semicolon']",6,,,,'--',,
"['a', 'f']",lattice,538,img/target_8.png,1,"['space', 'l']",7,,,,'--',,
"['a', 'space']",lattice,539,img/target_9.png,1,"['space', 'semicolon']",6,,,,'--',,
"['s', 'f']",lattice,540,img/target_11.png,1,"['j', 'l']",8,,,,'--',,
"['a', 'space']",lattice,541,img/target_9.png,1,"['space', 'semicolon']",6,,,,'--',,
"['a', 'f']",lattice,542,img/target_8.png,1,"['space', 'l']",7,,,,'--',,
"['d', 'f']",lattice,543,img/target_13.png,1,"['k', 'l']",5,,,,'--',,
"['f', 'space']",lattice,544,img/target_15.png,1,"['l', 'semicolon']",3,,,,'--',,
"['d', 'f']",lattice,545,img/target_13.png,1,"['k', 'l']",5,,,,'--',,
"['a', 'f']",lattice,546,img/target_8.png,1,"['space', 'l']",7,,,,'--',,
"['a', 'space']",lattice,547,img/target_9.png,1,"['space', 'semicolon']",6,,,,'--',,
"['s', 'space']",lattice,548,img/target_12.png,1,"['j', 'semicolon']",4,,,,'--',,
"['a', 'space']",lattice,549,img/target_9.png,1,"['space', 'semicolon']",6,,,,'--',,
"['s', 'f']",lattice,550,img/target_11.png,1,"['j', 'l']",8,,,,'--',,
"['a', 'space']",lattice,551,img/target_9.png,1,"['space', 'semicolon']",6,,,,'--',,
"['s', 'space']",lattice,552,img/target_12.png,1,"['j', 'semicolon']",4,,,,'--',,
"['d', 'f']",lattice,553,img/target_13.png,1,"['k', 'l']",5,,,,'--',,
"['a', 'space']",lattice,554,img/target_9.png,1,"['space', 'semicolon']",6,,,,'--',,
"['a', 'f']",lattice,555,img/target_8.png,1,"['space', 'l']",7,,,,'--',,
"['d', 'f']",lattice,556,img/target_13.png,1,"['k', 'l']",5,,,,'--',,
"['s', 'space']",lattice,557,img/target_12.png,1,"['j', 'semicolon']",4,,,,'--',,
"['d', 'f']",lattice,558,img/target_13.png,1,"['k', 'l']",5,,,,'--',,
"['a', 'space']",lattice,559,img/target_9.png,1,"['space', 'semicolon']",6,,,,'--',,
"['d', 'f']",lattice,560,img/target_13.png,1,"['k', 'l']",5,,,,'--',,
"['a', 'f']",lattice,561,img/target_8.png,1,"['space', 'l']",7,,,,'--',,
"['s', 'f']",lattice,562,img/target_11.png,1,"['j', 'l']",8,,,,'--',,
"['d', 'space']",lattice,563,img/target_14.png,1,"['k', 'semicolon']",0,,,,'--',,
"['a', 'd']",lattice,564,img/target_7.png,1,"['space', 'k']",2,,,,'--',,
"['s', 'space']",lattice,565,img/target_12.png,1,"['j', 'semicolon']",4,,,,'--',,
"['f', 'space']",lattice,566,img/target_15.png,1,"['l', 'semicolon']",3,,,,'--',,
"['s', 'space']",lattice,567,img/target_12.png,1,"['j', 'semicolon']",4,,,,'--',,
"['f', 'space']",lattice,568,img/target_15.png,1,"['l', 'semicolon']",3,,,,'--',,
"['s', 'space']",lattice,569,img/target_12.png,1,"['j', 'semicolon']",4,,,,'--',,
"['a', 'space']",lattice,570,img/target_9.png,1,"['space', 'semicolon']",6,,,,'--',,
"['a', 'f']",lattice,571,img/target_8.png,1,"['space', 'l']",7,,,,'--',,
"['a', 's']",lattice,572,img/target_6.png,1,"['space', 'j']",9,,,,'--',,
"['s', 'f']",lattice,573,img/target_11.png,1,"['j', 'l']",8,,,,'--',,
"['a', 's']",lattice,574,img/target_6.png,1,"['space', 'j']",9,,,,'--',,
"['s', 'f']",lattice,575,img/target_11.png,1,"['j', 'l']",8,,,,'--',,
"['a', 's']",lattice,576,img/target_6.png,1,"['space', 'j']",9,,,,'--',,
"['d', 'space']",lattice,577,img/target_14.png,1,"['k', 'semicolon']",0,,,,'--',,
"['s', 'd']",lattice,578,img/target_10.png,1,"['j', 'k']",1,,,,'--',,
"['a', 'd']",lattice,579,img/target_7.png,1,"['space', 'k']",2,,,,'--',,
"['s', 'd']",lattice,580,img/target_10.png,1,"['j', 'k']",1,,,,'--',,
"['a', 'd']",lattice,581,img/target_7.png,1,"['space', 'k']",2,,,,'--',,
"['d', 'space']",lattice,582,img/target_14.png,1,"['k', 'semicolon']",0,,,,'--',,
"['a', 's']",lattice,583,img/target_6.png,1,"['space', 'j']",9,,,,'--',,
"['s', 'f']",lattice,584,img/target_11.png,1,"['j', 'l']",8,,,,'--',,
"['a', 's']",lattice,585,img/target_6.png,1,"['space', 'j']",9,,,,'--',,
"['s', 'f']",lattice,586,img/target_11.png,1,"['j', 'l']",8,,,,'--',,
"['a', 'f']",lattice,587,img/target_8.png,1,"['space', 'l']",7,,,,'--',,
"['d', 'f']",lattice,588,img/target_13.png,1,"['k', 'l']",5,,,,'--',,
"['f', 'space']",lattice,589,img/target_15.png,1,"['l', 'semicolon']",3,,,,'--',,
"['s', 'd']",lattice,590,img/target_10.png,1,"['j', 'k']",1,,,,'--',,
"['a', 's']",lattice,591,img/target_6.png,1,"['space', 'j']",9,,,,'--',,
"['d', 'space']",lattice,592,img/target_14.png,1,"['k', 'semicolon']",0,,,,'--',,
"['a', 's']",lattice,593,img/target_6.png,1,"['space', 'j']",9,,,,'--',,
"['s', 'f']",lattice,594,img/target_11.png,1,"['j', 'l']",8,,,,'--',,
"['a', 'f']",lattice,595,img/target_8.png,1,"['space', 'l']",7,,,,'--',,
"['a', 's']",lattice,596,img/target_6.png,1,"['space', 'j']",9,,,,'--',,
"['s', 'f']",lattice,597,img/target_11.png,1,"['j', 'l']",8,,,,'--',,
"['d', 'space']",lattice,598,img/target_14.png,1,"['k', 'semicolon']",0,,,,'--',,
"['a', 'd']",lattice,599,img/target_7.png,1,"['space', 'k']",2,,,,'--',,
"['s', 'd']",lattice,600,img/target_10.png,1,"['j', 'k']",1,,,,'--',,
"['d', 'space']",lattice,601,img/target_14.png,1,"['k', 'semicolon']",0,,,,'--',,
"['s', 'd']",lattice,602,img/target_10.png,1,"['j', 'k']",1,,,,'--',,
"['d', 'space']",lattice,603,img/target_14.png,1,"['k', 'semicolon']",0,,,,'--',,
"['a', 'd']",lattice,604,img/target_7.png,1,"['space', 'k']",2,,,,'--',,
"['s', 'space']",lattice,605,img/target_12.png,1,"['j', 'semicolon']",4,,,,'--',,
"['a', 'space']",lattice,606,img/target_9.png,1,"['space', 'semicolon']",6,,,,'--',,
"['s', 'space']",lattice,607,img/target_12.png,1,"['j', 'semicolon']",4,,,,'--',,
"['f', 'space']",lattice,608,img/target_15.png,1,"['l', 'semicolon']",3,,,,'--',,
"['s', 'd']",lattice,609,img/target_10.png,1,"['j', 'k']",1,,,,'--',,
"['a', 's']",lattice,610,img/target_6.png,1,"['space', 'j']",9,,,,'--',,
"['s', 'd']",lattice,611,img/target_10.png,1,"['j', 'k']",1,,,,'--',,
"['d', 'space']",lattice,612,img/target_14.png,1,"['k', 'semicolon']",0,,,,'--',,
"['a', 's']",lattice,613,img/target_6.png,1,"['space', 'j']",9,,,,'--',,
"['d', 'space']",lattice,614,img/target_14.png,1,"['k', 'semicolon']",0,,,,'--',,
"['a', 's']",lattice,615,img/target_6.png,1,"['space', 'j']",9,,,,'--',,
"['s', 'f']",lattice,616,img/target_11.png,1,"['j', 'l']",8,,,,'--',,
"['d', 'space']",lattice,617,img/target_14.png,1,"['k', 'semicolon']",0,,,,'--',,
"['a', 's']",lattice,618,img/target_6.png,1,"['space', 'j']",9,,,,'--',,
"['d', 'space']",lattice,619,img/target_14.png,1,"['k', 'semicolon']",0,,,,'--',,
"['a', 'd']",lattice,620,img/target_7.png,1,"['space', 'k']",2,,,,'--',,
"['f', 'space']",lattice,621,img/target_15.png,1,"['l', 'semicolon']",3,,,,'--',,
"['s', 'd']",lattice,622,img/target_10.png,1,"['j', 'k']",1,,,,'--',,
"['f', 'space']",lattice,623,img/target_15.png,1,"['l', 'semicolon']",3,,,,'--',,
"['d', 'f']",lattice,624,img/target_13.png,1,"['k', 'l']",5,,,,'--',,
"['s', 'space']",lattice,625,img/target_12.png,1,"['j', 'semicolon']",4,,,,'--',,
"['a', 'space']",lattice,626,img/target_9.png,1,"['space', 'semicolon']",6,,,,'--',,
"['a', 'f']",lattice,627,img/target_8.png,1,"['space', 'l']",7,,,,'--',,
"['a', 'space']",lattice,628,img/target_9.png,1,"['space', 'semicolon']",6,,,,'--',,
"['s', 'space']",lattice,629,img/target_12.png,1,"['j', 'semicolon']",4,,,,'--',,
"['d', 'f']",lattice,630,img/target_13.png,1,"['k', 'l']",5,,,,'--',,
"['f', 'space']",lattice,631,img/target_15.png,1,"['l', 'semicolon']",3,,,,'--',,
"['a', 'd']",lattice,632,img/target_7.png,1,"['space', 'k']",2,,,,'--',,
"['s', 'd']",lattice,633,img/target_10.png,1,"['j', 'k']",1,,,,'--',,
"['d', 'space']",lattice,634,img/target_14.png,1,"['k', 'semicolon']",0,,,,'--',,
"['s', 'd']",lattice,635,img/target_10.png,1,"['j', 'k']",1,,,,'--',,
"['d', 'space']",lattice,636,img/target_14.png,1,"['k', 'semicolon']",0,,,,'--',,
"['s', 'f']",lattice,637,img/target_11.png,1,"['j', 'l']",8,,,,'--',,
"['a', 'f']",lattice,638,img/target_8.png,1,"['space', 'l']",7,,,,'--',,
"['a', 's']",lattice,639,img/target_6.png,1,"['space', 'j']",9,,,,'--',,
"['d', 'space']",lattice,640,img/target_14.png,1,"['k', 'semicolon']",0,,,,'--',,
"['s', 'd']",lattice,641,img/target_10.png,1,"['j', 'k']",1,,,,'--',,
"['a', 'd']",lattice,642,img/target_7.png,1,"['space', 'k']",2,,,,'--',,
"['s', 'space']",lattice,643,img/target_12.png,1,"['j', 'semicolon']",4,,,,'--',,
"['a', 'space']",lattice,644,img/target_9.png,1,"['space', 'semicolon']",6,,,,'--',,
"['s', 'f']",lattice,645,img/target_11.png,1,"['j', 'l']",8,,,,'--',,
"['a', 'space']",lattice,646,img/target_9.png,1,"['space', 'semicolon']",6,,,,'--',,
"['d', 'f']",lattice,647,img/target_13.png,1,"['k', 'l']",5,,,,'--',,
"['a', 'space']",lattice,648,img/target_9.png,1,"['space', 'semicolon']",6,,,,'--',,
"['s', 'f']",lattice,649,img/target_11.png,1,"['j', 'l']",8,,,,'--',,
"['a', 'f']",lattice,650,img/target_8.png,1,"['space', 'l']",7,,,,'--',,
"['d', 'f']",lattice,651,img/target_13.png,1,"['k', 'l']",5,,,,'--',,
"['s', 'space']",lattice,652,img/target_12.png,1,"['j', 'semicolon']",4,,,,'--',,
"['f', 'space']",lattice,653,img/target_15.png,1,"['l', 'semicolon']",3,,,,'--',,
"['s', 'd']",lattice,654,img/target_10.png,1,"['j', 'k']",1,,,,'--',,
"['a', 's']",lattice,655,img/target_6.png,1,"['space', 'j']",9,,,,'--',,
"['s', 'd']",lattice,656,img/target_10.png,1,"['j', 'k']",1,,,,'--',,
"['a', 's']",lattice,657,img/target_6.png,1,"['space', 'j']",9,,,,'--',,
"['a', 'f']",lattice,658,img/target_8.png,1,"['space', 'l']",7,,,,'--',,
"['s', 'f']",lattice,659,img/target_11.png,1,"['j', 'l']",8,,,,'--',,
"['a', 's']",lattice,660,img/target_6.png,1,"['space', 'j']",9,,,,'--',,
"['d', 'space']",lattice,661,img/target_14.png,1,"['k', 'semicolon']",0,,,,'--',,
"['a', 'd']",lattice,662,img/target_7.png,1,"['space', 'k']",2,,,,'--',,
"['d', 'space']",lattice,663,img/target_14.png,1,"['k', 'semicolon']",0,,,,'--',,
"['s', 'd']",lattice,664,img/target_10.png,1,"['j', 'k']",1,,,,'--',,
"['a', 's']",lattice,665,img/target_6.png,1,"['space', 'j']",9,,,,'--',,
"['d', 'space']",lattice,666,img/target_14.png,1,"['k', 'semicolon']",0,,,,'--',,
"['s', 'f']",lattice,667,img/target_11.png,1,"['j', 'l']",8,,,,'--',,
"['a', 's']",lattice,668,img/target_6.png,1,"['space', 'j']",9,,,,'--',,
"['s', 'd']",lattice,669,img/target_10.png,1,"['j', 'k']",1,,,,'--',,
"['a', 'd']",lattice,670,img/target_7.png,1,"['space', 'k']",2,,,,'--',,
"['f', 'space']",lattice,671,img/target_15.png,1,"['l', 'semicolon']",3,,,,'--',,
"['a', 'd']",lattice,672,img/target_7.png,1,"['space', 'k']",2,,,,'--',,
"['s', 'd']",lattice,673,img/target_10.png,1,"['j', 'k']",1,,,,'--',,
"['a', 'd']",lattice,674,img/target_7.png,1,"['space', 'k']",2,,,,'--',,
"['s', 'd']",lattice,675,img/target_10.png,1,"['j', 'k']",1,,,,'--',,
"['a', 'd']",lattice,676,img/target_7.png,1,"['space', 'k']",2,,,,'--',,
"['s', 'space']",lattice,677,img/target_12.png,1,"['j', 'semicolon']",4,,,,'--',,
"['f', 'space']",lattice,678,img/target_15.png,1,"['l', 'semicolon']",3,,,,'--',,
"['a', 'd']",lattice,679,img/target_7.png,1,"['space', 'k']",2,,,,'--',,
"['d', 'space']",lattice,680,img/target_14.png,1,"['k', 'semicolon']",0,,,,'--',,
"['a', 'd']",lattice,681,img/target_7.png,1,"['space', 'k']",2,,,,'--',,
"['f', 'space']",lattice,682,img/target_15.png,1,"['l', 'semicolon']",3,,,,'--',,
"['a', 'd']",lattice,683,img/target_7.png,1,"['space', 'k']",2,,,,'--',,
"['s', 'd']",lattice,684,img/target_10.png,1,"['j', 'k']",1,,,,'--',,
"['a', 'd']",lattice,685,img/target_7.png,1,"['space', 'k']",2,,,,'--',,
"['f', 'space']",lattice,686,img/target_15.png,1,"['l', 'semicolon']",3,,,,'--',,
"['a', 'd']",lattice,687,img/target_7.png,1,"['space', 'k']",2,,,,'--',,
"['s', 'space']",lattice,688,img/target_12.png,1,"['j', 'semicolon']",4,,,,'--',,
"['a', 'space']",lattice,689,img/target_9.png,1,"['space', 'semicolon']",6,,,,'--',,
"['s', 'space']",lattice,690,img/target_12.png,1,"['j', 'semicolon']",4,,,,'--',,
"['f', 'space']",lattice,691,img/target_15.png,1,"['l', 'semicolon']",3,,,,'--',,
"['a', 'd']",lattice,692,img/target_7.png,1,"['space', 'k']",2,,,,'--',,
"['d', 'space']",lattice,693,img/target_14.png,1,"['k', 'semicolon']",0,,,,'--',,
"['a', 's']",lattice,694,img/target_6.png,1,"['space', 'j']",9,,,,'--',,
"['s', 'f']",lattice,695,img/target_11.png,1,"['j', 'l']",8,,,,'--',,
"['d', 'space']",lattice,696,img/target_14.png,1,"['k', 'semicolon']",0,,,,'--',,
"['a', 's']",lattice,697,img/target_6.png,1,"['space', 'j']",9,,,,'--',,
"['a', 'f']",lattice,698,img/target_8.png,1,"['space', 'l']",7,,,,'--',,
"['a', 'space']",lattice,699,img/target_9.png,1,"['space', 'semicolon']",6,,,,'--',,
"['s', 'space']",lattice,700,img/target_12.png,1,"['j', 'semicolon']",4,,,,'--',,
"['a', 'space']",lattice,701,img/target_9.png,1,"['space', 'semicolon']",6,,,,'--',,
"['s', 'f']",lattice,702,img/target_11.png,1,"['j', 'l']",8,,,,'--',,
"['a', 'space']",lattice,703,img/target_9.png,1,"['space', 'semicolon']",6,,,,'--',,
"['s', 'space']",lattice,704,img/target_12.png,1,"['j', 'semicolon']",4,,,,'--',,
"['a', 'space']",lattice,705,img/target_9.png,1,"['space', 'semicolon']",6,,,,'--',,
"['d', 'f']",lattice,706,img/target_13.png,1,"['k', 'l']",5,,,,'--',,
"['a', 'space']",lattice,707,img/target_9.png,1,"['space', 'semicolon']",6,,,,'--',,
"['s', 'space']",lattice,708,img/target_12.png,1,"['j', 'semicolon']",4,,,,'--',,
"['d', 'f']",lattice,709,img/target_13.png,1,"['k', 'l']",5,,,,'--',,
"['s', 'space']",lattice,710,img/target_12.png,1,"['j', 'semicolon']",4,,,,'--',,
"['a', 'space']",lattice,711,img/target_9.png,1,"['space', 'semicolon']",6,,,,'--',,
"['a', 'f']",lattice,712,img/target_8.png,1,"['space', 'l']",7,,,,'--',,
"['a', 's']",lattice,713,img/target_6.png,1,"['space', 'j']",9,,,,'--',,
"['a', 'f']",lattice,714,img/target_8.png,1,"['space', 'l']",7,,,,'--',,
"['d', 'f']",lattice,715,img/target_13.png,1,"['k', 'l']",5,,,,'--',,
"['f', 'space']",lattice,716,img/target_15.png,1,"['l', 'semicolon']",3,,,,'--',,
"['d', 'f']",lattice,717,img/target_13.png,1,"['k', 'l']",5,,,,'--',,
"['a', 'space']",lattice,718,img/target_9.png,1,"['space', 'semicolon']",6,,,,'--',,
"['d', 'f']",lattice,719,img/target_13.png,1,"['k', 'l']",5,,,,'--',,
"['s', 'space']",lattice,720,img/target_12.png,1,"['j', 'semicolon']",4,,,,'--',,
"['a', 'space']",lattice,721,img/target_9.png,1,"['space', 'semicolon']",6,,,,'--',,
"['d', 'f']",lattice,722,img/target_13.png,1,"['k', 'l']",5,,,,'--',,
"['a', 'space']",lattice,723,img/target_9.png,1,"['space', 'semicolon']",6,,,,'--',,
"['d', 'f']",lattice,724,img/target_13.png,1,"['k', 'l']",5,,,,'--',,
"['a', 'space']",lattice,725,img/target_9.png,1,"['space', 'semicolon']",6,,,,'--',,
"['s', 'f']",lattice,726,img/target_11.png,1,"['j', 'l']",8,,,,'--',,
"['a', 'f']",lattice,727,img/target_8.png,1,"['space', 'l']",7,,,,'--',,
"['s', 'f']",lattice,728,img/target_11.png,1,"['j', 'l']",8,,,,'--',,
"['a', 's']",lattice,729,img/target_6.png,1,"['space', 'j']",9,,,,'--',,
"['s', 'd']",lattice,730,img/target_10.png,1,"['j', 'k']",1,,,,'--',,
"['f', 'space']",lattice,731,img/target_15.png,1,"['l', 'semicolon']",3,,,,'--',,
"['s', 'space']",lattice,732,img/target_12.png,1,"['j', 'semicolon']",4,,,,'--',,
"['f', 'space']",lattice,733,img/target_15.png,1,"['l', 'semicolon']",3,,,,'--',,
"['a', 'd']",lattice,734,img/target_7.png,1,"['space', 'k']",2,,,,'--',,
"['s', 'd']",lattice,735,img/target_10.png,1,"['j', 'k']",1,,,,'--',,
"['f', 'space']",lattice,736,img/target_15.png,1,"['l', 'semicolon']",3,,,,'--',,
"['d', 'f']",lattice,737,img/target_13.png,1,"['k', 'l']",5,,,,'--',,
"['a', 'space']",lattice,738,img/target_9.png,1,"['space', 'semicolon']",6,,,,'--',,
"['d', 'f']",lattice,739,img/target_13.png,1,"['k', 'l']",5,,,,'--',,
"['s', 'space']",lattice,740,img/target_12.png,1,"['j', 'semicolon']",4,,,,'--',,
"['f', 'space']",lattice,741,img/target_15.png,1,"['l', 'semicolon']",3,,,,'--',,
"['a', 'd']",lattice,742,img/target_7.png,1,"['space', 'k']",2,,,,'--',,
"['s', 'space']",lattice,743,img/target_12.png,1,"['j', 'semicolon']",4,,,,'--',,
"['f', 'space']",lattice,744,img/target_15.png,1,"['l', 'semicolon']",3,,,,'--',,
"['a', 'd']",lattice,745,img/target_7.png,1,"['space', 'k']",2,,,,'--',,
"['d', 'space']",lattice,746,img/target_14.png,1,"['k', 'semicolon']",0,,,,'--',,
"['s', 'f']",lattice,747,img/target_11.png,1,"['j', 'l']",8,,,,'--',,
"['a', 's']",lattice,748,img/target_6.png,1,"['space', 'j']",9,,,,'--',,
"['d', 'space']",lattice,749,img/target_14.png,1,"['k', 'semicolon']",0,,,,'--',,
"['a', 'd']",lattice,750,img/target_7.png,1,"['space', 'k']",2,,,,'--',,
"['d', 'space']",lattice,751,img/target_14.png,1,"['k', 'semicolon']",0,,,,'--',,
"['s', 'f']",lattice,752,img/target_11.png,1,"['j', 'l']",8,,,,'--',,
"['a', 'space']",lattice,753,img/target_9.png,1,"['space', 'semicolon']",6,,,,'--',,
"['s', 'space']",lattice,754,img/target_12.png,1,"['j', 'semicolon']",4,,,,'--',,
"['a', 'd']",lattice,755,img/target_7.png,1,"['space', 'k']",2,,,,'--',,
"['f', 'space']",lattice,756,img/target_15.png,1,"['l', 'semicolon']",3,,,,'--',,
"['s', 'd']",lattice,757,img/target_10.png,1,"['j', 'k']",1,,,,'--',,
"['a', 'd']",lattice,758,img/target_7.png,1,"['space', 'k']",2,,,,'--',,
"['d', 'space']",lattice,759,img/target_14.png,1,"['k', 'semicolon']",0,,,,'--',,
"['s', 'd']",lattice,760,img/target_10.png,1,"['j', 'k']",1,,,,'--',,
"['f', 'space']",lattice,761,img/target_15.png,1,"['l', 'semicolon']",3,,,,'--',,
"['s', 'd']",lattice,762,img/target_10.png,1,"['j', 'k']",1,,,,'--',,
"['a', 's']",lattice,763,img/target_6.png,1,"['space', 'j']",9,,,,'--',,
"['s', 'f']",lattice,764,img/target_11.png,1,"['j', 'l']",8,,,,'--',,
"['d', 'space']",lattice,765,img/target_14.png,1,"['k', 'semicolon']",0,,,,'--',,
"['s', 'd']",lattice,766,img/target_10.png,1,"['j', 'k']",1,,,,'--',,
"['d', 'space']",lattice,767,img/target_14.png,1,"['k', 'semicolon']",0,,,,'--',,
"['s', 'f']",lattice,768,img/target_11.png,1,"['j', 'l']",8,,,,'--',,
"['d', 'space']",lattice,769,img/target_14.png,1,"['k', 'semicolon']",0,,,,'--',,
"['a', 's']",lattice,770,img/target_6.png,1,"['space', 'j']",9,,,,'--',,
"['s', 'd']",lattice,771,img/target_10.png,1,"['j', 'k']",1,,,,'--',,
"['a', 'd']",lattice,772,img/target_7.png,1,"['space', 'k']",2,,,,'--',,
"['s', 'd']",lattice,773,img/target_10.png,1,"['j', 'k']",1,,,,'--',,
"['d', 'space']",lattice,774,img/target_14.png,1,"['k', 'semicolon']",0,,,,'--',,
"['a', 'd']",lattice,775,img/target_7.png,1,"['space', 'k']",2,,,,'--',,
"['d', 'space']",lattice,776,img/target_14.png,1,"['k', 'semicolon']",0,,,,'--',,
"['a', 's']",lattice,777,img/target_6.png,1,"['space', 'j']",9,,,,'--',,
"['a', 'f']",lattice,778,img/target_8.png,1,"['space', 'l']",7,,,,'--',,
"['a', 'space']",lattice,779,img/target_9.png,1,"['space', 'semicolon']",6,,,,'--',,
"['s', 'space']",lattice,780,img/target_12.png,1,"['j', 'semicolon']",4,,,,'--',,
"['d', 'f']",lattice,781,img/target_13.png,1,"['k', 'l']",5,,,,'--',,
"['f', 'space']",lattice,782,img/target_15.png,1,"['l', 'semicolon']",3,,,,'--',,
"['s', 'space']",lattice,783,img/target_12.png,1,"['j', 'semicolon']",4,,,,'--',,
"['f', 'space']",lattice,784,img/target_15.png,1,"['l', 'semicolon']",3,,,,'--',,
"['d', 'f']",lattice,785,img/target_13.png,1,"['k', 'l']",5,,,,'--',,
"['s', 'space']",lattice,786,img/target_12.png,1,"['j', 'semicolon']",4,,,,'--',,
"['a', 'space']",lattice,787,img/target_9.png,1,"['space', 'semicolon']",6,,,,'--',,
"['s', 'f']",lattice,788,img/target_11.png,1,"['j', 'l']",8,,,,'--',,
"['a', 'f']",lattice,789,img/target_8.png,1,"['space', 'l']",7,,,,'--',,
"['s', 'f']",lattice,790,img/target_11.png,1,"['j', 'l']",8,,,,'--',,
"['a', 'f']",lattice,791,img/target_8.png,1,"['space', 'l']",7,,,,'--',,
"['d', 'f']",lattice,792,img/target_13.png,1,"['k', 'l']",5,,,,'--',,
"['f', 'space']",lattice,793,img/target_15.png,1,"['l', 'semicolon']",3,,,,'--',,
"['d', 'f']",lattice,794,img/target_13.png,1,"['k', 'l']",5,,,,'--',,
"['s', 'space']",lattice,795,img/target_12.png,1,"['j', 'semicolon']",4,,,,'--',,
"['d', 'f']",lattice,796,img/target_13.png,1,"['k', 'l']",5,,,,'--',,
"['a', 'f']",lattice,797,img/target_8.png,1,"['space', 'l']",7,,,,'--',,
"['a', 's']",lattice,798,img/target_6.png,1,"['space', 'j']",9,,,,'--',,
"['a', 'f']",lattice,799,img/target_8.png,1,"['space', 'l']",7,,,,'--',,
"['a', 's']",lattice,800,img/target_6.png,1,"['space', 'j']",9,,,,'--',,
"['s', 'd']",lattice,801,img/target_10.png,1,"['j', 'k']",1,,,,'--',,
"['a', 'd']",lattice,802,img/target_7.png,1,"['space', 'k']",2,,,,'--',,
"['s', 'space']",lattice,803,img/target_12.png,1,"['j', 'semicolon']",4,,,,'--',,
"['f', 'space']",lattice,804,img/target_15.png,1,"['l', 'semicolon']",3,,,,'--',,
"['s', 'space']",lattice,805,img/target_12.png,1,"['j', 'semicolon']",4,,,,'--',,
"['d', 'f']",lattice,806,img/target_13.png,1,"['k', 'l']",5,,,,'--',,
"['a', 'space']",lattice,807,img/target_9.png,1,"['space', 'semicolon']",6,,,,'--',,
"['s', 'space']",lattice,808,img/target_12.png,1,"['j', 'semicolon']",4,,,,'--',,
"['f', 'space']",lattice,809,img/target_15.png,1,"['l', 'semicolon']",3,,,,'--',,
"['a', 'd']",lattice,810,img/target_7.png,1,"['space', 'k']",2,,,,'--',,
"['d', 'space']",lattice,811,img/target_14.png,1,"['k', 'semicolon']",0,,,,'--',,
"['a', 'd']",lattice,812,img/target_7.png,1,"['space', 'k']",2,,,,'--',,
"['d', 'space']",lattice,813,img/target_14.png,1,"['k', 'semicolon']",0,,,,'--',,
"['s', 'd']",lattice,814,img/target_10.png,1,"['j', 'k']",1,,,,'--',,
"['f', 'space']",lattice,815,img/target_15.png,1,"['l', 'semicolon']",3,,,,'--',,
"['s', 'space']",lattice,816,img/target_12.png,1,"['j', 'semicolon']",4,,,,'--',,
"['f', 'space']",lattice,817,img/target_15.png,1,"['l', 'semicolon']",3,,,,'--',,
"['s', 'space']",lattice,818,img/target_12.png,1,"['j', 'semicolon']",4,,,,'--',,
"['f', 'space']",lattice,819,img/target_15.png,1,"['l', 'semicolon']",3,,,,'--',,
"['a', 'd']",lattice,820,img/target_7.png,1,"['space', 'k']",2,,,,'--',,
"['d', 'space']",lattice,821,img/target_14.png,1,"['k', 'semicolon']",0,,,,'--',,
"['a', 'd']",lattice,822,img/target_7.png,1,"['space', 'k']",2,,,,'--',,
"['s', 'd']",lattice,823,img/target_10.png,1,"['j', 'k']",1,,,,'--',,
"['a', 'd']",lattice,824,img/target_7.png,1,"['space', 'k']",2,,,,'--',,
"['d', 'space']",lattice,825,img/target_14.png,1,"['k', 'semicolon']",0,,,,'--',,
"['s', 'f']",lattice,826,img/target_11.png,1,"['j', 'l']",8,,,,'--',,
"['a', 'space']",lattice,827,img/target_9.png,1,"['space', 'semicolon']",6,,,,'--',,
"['d', 'f']",lattice,828,img/target_13.png,1,"['k', 'l']",5,,,,'--',,
"['s', 'space']",lattice,829,img/target_12.png,1,"['j', 'semicolon']",4,,,,'--',,
"['a', 'd']",lattice,830,img/target_7.png,1,"['space', 'k']",2,,,,'--',,
"['f', 'space']",lattice,831,img/target_15.png,1,"['l', 'semicolon']",3,,,,'--',,
"['d', 'f']",lattice,832,img/target_13.png,1,"['k', 'l']",5,,,,'--',,
"['s', 'space']",lattice,833,img/target_12.png,1,"['j', 'semicolon']",4,,,,'--',,
"['f', 'space']",lattice,834,img/target_15.png,1,"['l', 'semicolon']",3,,,,'--',,
"['a', 'd']",lattice,835,img/target_7.png,1,"['space', 'k']",2,,,,'--',,
"['f', 'space']",lattice,836,img/target_15.png,1,"['l', 'semicolon']",3,,,,'--',,
"['s', 'space']",lattice,837,img/target_12.png,1,"['j', 'semicolon']",4,,,,'--',,
"['a', 'space']",lattice,838,img/target_9.png,1,"['space', 'semicolon']",6,,,,'--',,
"['s', 'f']",lattice,839,img/target_11.png,1,"['j', 'l']",8,,,,'--',,
"['d', 'space']",lattice,840,img/target_14.png,1,"['k', 'semicolon']",0,,,,'--',,
"['a', 's']",lattice,841,img/target_6.png,1,"['space', 'j']",9,,,,'--',,
"['s', 'd']",lattice,842,img/target_10.png,1,"['j', 'k']",1,,,,'--',,
"['a', 's']",lattice,843,img/target_6.png,1,"['space', 'j']",9,,,,'--',,
"['s', 'd']",lattice,844,img/target_10.png,1,"['j', 'k']",1,,,,'--',,
"['a', 'd']",lattice,845,img/target_7.png,1,"['space', 'k']",2,,,,'--',,
"['s', 'space']",lattice,846,img/target_12.png,1,"['j', 'semicolon']",4,,,,'--',,
"['a', 'd']",lattice,847,img/target_7.png,1,"['space', 'k']",2,,,,'--',,
"['f', 'space']",lattice,848,img/target_15.png,1,"['l', 'semicolon']",3,,,,'--',,
"['d', 'f']",lattice,849,img/target_13.png,1,"['k', 'l']",5,,,,'--',,
"['a', 'f']",lattice,850,img/target_8.png,1,"['space', 'l']",7,,,,'--',,
"['a', 's']",lattice,851,img/target_6.png,1,"['space', 'j']",9,,,,'--',,
"['d', 'space']",lattice,852,img/target_14.png,1,"['k', 'semicolon']",0,,,,'--',,
"['a', 'd']",lattice,853,img/target_7.png,1,"['space', 'k']",2,,,,'--',,
"['s', 'space']",lattice,854,img/target_12.png,1,"['j', 'semicolon']",4,,,,'--',,
"['d', 'f']",lattice,855,img/target_13.png,1,"['k', 'l']",5,,,,'--',,
"['s', 'space']",lattice,856,img/target_12.png,1,"['j', 'semicolon']",4,,,,'--',,
"['f', 'space']",lattice,857,img/target_15.png,1,"['l', 'semicolon']",3,,,,'--',,
"['a', 'd']",lattice,858,img/target_7.png,1,"['space', 'k']",2,,,,'--',,
"['f', 'space']",lattice,859,img/target_15.png,1,"['l', 'semicolon']",3,,,,'--',,
"['s', 'space']",lattice,860,img/target_12.png,1,"['j', 'semicolon']",4,,,,'--',,
"['a', 'space']",lattice,861,img/target_9.png,1,"['space', 'semicolon']",6,,,,'--',,
"['a', 'f']",lattice,862,img/target_8.png,1,"['space', 'l']",7,,,,'--',,
"['a', 'space']",lattice,863,img/target_9.png,1,"['space', 'semicolon']",6,,,,'--',,
"['a', 'f']",lattice,864,img/target_8.png,1,"['space', 'l']",7,,,,'--',,
"['a', 'space']",lattice,865,img/target_9.png,1,"['space', 'semicolon']",6,,,,'--',,
"['s', 'space']",lattice,866,img/target_12.png,1,"['j', 'semicolon']",4,,,,'--',,
"['a', 'd']",lattice,867,img/target_7.png,1,"['space', 'k']",2,,,,'--',,
"['s', 'd']",lattice,868,img/target_10.png,1,"['j', 'k']",1,,,,'--',,
"['f', 'space']",lattice,869,img/target_15.png,1,"['l', 'semicolon']",3,,,,'--',,
"['s', 'd']",lattice,870,img/target_10.png,1,"['j', 'k']",1,,,,'--',,
"['f', 'space']",lattice,871,img/target_15.png,1,"['l', 'semicolon']",3,,,,'--',,
"['d', 'f']",lattice,872,img/target_13.png,1,"['k', 'l']",5,,,,'--',,
"['a', 'f']",lattice,873,img/target_8.png,1,"['space', 'l']",7,,,,'--',,
"['s', 'f']",lattice,874,img/target_11.png,1,"['j', 'l']",8,,,,'--',,
"['a', 'space']",lattice,875,img/target_9.png,1,"['space', 'semicolon']",6,,,,'--',,
"['a', 'f']",lattice,876,img/target_8.png,1,"['space', 'l']",7,,,,'--',,
"['a', 's']",lattice,877,img/target_6.png,1,"['space', 'j']",9,,,,'--',,
"['d', 'space']",lattice,878,img/target_14.png,1,"['k', 'semicolon']",0,,,,'--',,
"['s', 'f']",lattice,879,img/target_11.png,1,"['j', 'l']",8,,,,'--',,
"['a', 'space']",lattice,880,img/target_9.png,1,"['space', 'semicolon']",6,,,,'--',,
"['s', 'f']",lattice,881,img/target_11.png,1,"['j', 'l']",8,,,,'--',,
"['a', 's']",lattice,882,img/target_6.png,1,"['space', 'j']",9,,,,'--',,
"['s', 'd']",lattice,883,img/target_10.png,1,"['j', 'k']",1,,,,'--',,
"['d', 'space']",lattice,884,img/target_14.png,1,"['k', 'semicolon']",0,,,,'--',,
"['a', 's']",lattice,885,img/target_6.png,1,"['space', 'j']",9,,,,'--',,
"['a', 'f']",lattice,886,img/target_8.png,1,"['space', 'l']",7,,,,'--',,
"['d', 'f']",lattice,887,img/target_13.png,1,"['k', 'l']",5,,,,'--',,
"['f', 'space']",lattice,888,img/target_15.png,1,"['l', 'semicolon']",3,,,,'--',,
"['a', 'd']",lattice,889,img/target_7.png,1,"['space', 'k']",2,,,,'--',,
"['d', 'space']",lattice,890,img/target_14.png,1,"['k', 'semicolon']",0,,,,'--',,
"['s', 'f']",lattice,891,img/target_11.png,1,"['j', 'l']",8,,,,'--',,
"['a', 's']",lattice,892,img/target_6.png,1,"['space', 'j']",9,,,,'--',,
"['a', 'f']",lattice,893,img/target_8.png,1,"['space', 'l']",7,,,,'--',,
"['s', 'f']",lattice,894,img/target_11.png,1,"['j', 'l']",8,,,,'--',,
"['d', 'space']",lattice,895,img/target_14.png,1,"['k', 'semicolon']",0,,,,'--',,
"['s', 'f']",lattice,896,img/target_11.png,1,"['j', 'l']",8,,,,'--',,
"['d', 'space']",lattice,897,img/target_14.png,1,"['k', 'semicolon']",0,,,,'--',,
"['s', 'd']",lattice,898,img/target_10.png,1,"['j', 'k']",1,,,,'--',,
"['d', 'space']",lattice,899,img/target_14.png,1,"['k', 'semicolon']",0,,,,'--',,
