graph,trialNum,resp,path,pID,walk,ISI_raw,correct_raw,onset_raw,resp_raw,rt_raw,typing_raw,order
lattice,1,w,img/target_2.png,3,6,0.05000000074505806,1.0,0.010724067687988281,['w'],5.8484907150268555,d,0.0
lattice,2,e,img/target_3.png,3,5,0.05000000074505806,1.0,5.963221073150635,['e'],1.1910400390625,d,1.0
lattice,3,w,img/target_2.png,3,6,0.05000000074505806,1.0,7.256169319152832,['w'],1.426088809967041,d,2.0
lattice,4,b,img/target_6.png,3,7,0.05000000074505806,1.0,8.781882286071777,['b'],1.4051659107208252,d,3.0
lattice,5,o,img/target_9.png,3,9,0.05000000074505806,1.0,10.295912742614746,['o'],1.2182130813598633,d,4.0
lattice,6,v,img/target_5.png,3,1,0.05000000074505806,1.0,11.613025665283203,['v'],2.7818830013275146,d,5.0
lattice,7,o,img/target_9.png,3,9,0.05000000074505806,0.0,14.491045951843262,['o'],3.726901054382324,d,6.0
lattice,8,r,img/target_4.png,3,8,0.05000000074505806,1.0,18.296396255493164,['r'],1.802582025527954,d,7.0
lattice,9,p,img/target_10.png,3,0,0.05000000074505806,0.0,20.196273803710938,['p'],3.381286859512329,d,8.0
lattice,10,u,img/target_7.png,3,2,0.05000000074505806,1.0,23.664196014404297,['u'],3.4665520191192627,d,9.0
lattice,11,i,img/target_8.png,3,4,0.05000000074505806,0.0,27.226802825927734,['i'],3.8794829845428467,d,10.0
lattice,12,u,img/target_7.png,3,2,0.05000000074505806,1.0,31.191299438476562,['u'],1.6825029850006104,d,11.0
lattice,13,v,img/target_5.png,3,1,0.05000000074505806,1.0,32.975425720214844,['v'],2.1938259601593018,d,12.0
lattice,14,p,img/target_10.png,3,0,0.05000000074505806,0.0,35.25879669189453,['p'],3.111193895339966,d,13.0
lattice,15,r,img/target_4.png,3,8,0.05000000074505806,1.0,38.45907211303711,['r'],1.5660817623138428,d,14.0
lattice,16,w,img/target_2.png,3,6,0.05000000074505806,1.0,40.12682342529297,['w'],2.9473187923431396,d,15.0
lattice,17,b,img/target_6.png,3,7,0.05000000074505806,1.0,43.17656707763672,['b'],1.5202460289001465,d,16.0
lattice,18,o,img/target_9.png,3,9,0.05000000074505806,1.0,44.79343032836914,['o'],1.679438829421997,d,17.0
lattice,19,b,img/target_6.png,3,7,0.05000000074505806,1.0,46.5759391784668,['b'],2.4496240615844727,d,18.0
lattice,20,e,img/target_3.png,3,5,0.05000000074505806,0.0,49.14369201660156,['e'],2.0812859535217285,d,19.0
lattice,21,b,img/target_6.png,3,7,0.05000000074505806,1.0,51.309932708740234,['b'],2.5954859256744385,d,20.0
lattice,22,o,img/target_9.png,3,9,0.05000000074505806,0.0,54.02728271484375,['o'],2.526409864425659,d,21.0
lattice,23,p,img/target_10.png,3,0,0.05000000074505806,1.0,56.64364242553711,['p'],1.0847229957580566,d,22.0
lattice,24,v,img/target_5.png,3,1,0.05000000074505806,1.0,57.8277473449707,['v'],1.621412992477417,d,23.0
lattice,25,q,img/target_1.png,3,3,0.05000000074505806,1.0,59.55042266845703,['q'],1.3306469917297363,d,24.0
lattice,26,v,img/target_5.png,3,1,0.05000000074505806,1.0,60.99463653564453,['v'],1.3743019104003906,d,25.0
lattice,27,u,img/target_7.png,3,2,0.05000000074505806,0.0,62.4614143371582,['u'],3.867743968963623,d,26.0
lattice,28,i,img/target_8.png,3,4,0.05000000074505806,1.0,66.41556549072266,['i'],1.265779972076416,d,27.0
lattice,29,e,img/target_3.png,3,5,0.05000000074505806,0.0,67.77777099609375,['e'],2.3022799491882324,d,28.0
lattice,30,q,img/target_1.png,3,3,0.05000000074505806,1.0,70.1614990234375,['q'],1.9515430927276611,d,29.0
lattice,31,e,img/target_3.png,3,5,0.05000000074505806,1.0,72.2117919921875,['e'],2.4288530349731445,d,30.0
lattice,32,q,img/target_1.png,3,3,0.05000000074505806,1.0,74.74539184570312,['q'],1.494225025177002,d,31.0
lattice,33,e,img/target_3.png,3,5,0.05000000074505806,1.0,76.3293685913086,['e'],1.7752580642700195,d,32.0
lattice,34,i,img/target_8.png,3,4,0.05000000074505806,0.0,78.21231079101562,['i'],2.8989710807800293,d,33.0
lattice,35,u,img/target_7.png,3,2,0.05000000074505806,1.0,81.19622039794922,['u'],1.147428035736084,d,34.0
lattice,36,p,img/target_10.png,3,0,0.05000000074505806,1.0,82.44596862792969,['p'],1.1547539234161377,d,35.0
lattice,37,v,img/target_5.png,3,1,0.05000000074505806,1.0,83.69735717773438,['v'],1.1421570777893066,d,36.0
lattice,38,u,img/target_7.png,3,2,0.05000000074505806,0.0,84.93077850341797,['u'],2.6045889854431152,d,37.0
lattice,39,i,img/target_8.png,3,4,0.05000000074505806,1.0,87.61324310302734,['i'],1.139359951019287,d,38.0
lattice,40,e,img/target_3.png,3,5,0.05000000074505806,1.0,88.84759521484375,['e'],1.4876210689544678,d,39.0
lattice,41,b,img/target_6.png,3,7,0.05000000074505806,1.0,90.43058013916016,['b'],1.2256240844726562,d,40.0
lattice,42,o,img/target_9.png,3,9,0.05000000074505806,0.0,91.76365661621094,['o'],2.971165895462036,d,41.0
lattice,43,v,img/target_5.png,3,1,0.05000000074505806,1.0,94.81510162353516,['v'],1.1041429042816162,d,42.0
lattice,44,p,img/target_10.png,3,0,0.05000000074505806,1.0,96.01498413085938,['p'],1.2400338649749756,d,43.0
lattice,45,r,img/target_4.png,3,8,0.05000000074505806,0.0,97.34751892089844,['r'],2.107419013977051,d,44.0
lattice,46,b,img/target_6.png,3,7,0.05000000074505806,1.0,99.5322265625,['b'],2.091728925704956,d,45.0
lattice,47,e,img/target_3.png,3,5,0.05000000074505806,1.0,101.7316665649414,['e'],1.4679760932922363,d,46.0
lattice,48,b,img/target_6.png,3,7,0.05000000074505806,1.0,103.30318450927734,['b'],1.448854923248291,d,47.0
lattice,49,o,img/target_9.png,3,9,0.05000000074505806,0.0,104.84915161132812,['o'],2.2222540378570557,d,48.0
lattice,50,v,img/target_5.png,3,1,0.05000000074505806,1.0,107.1484603881836,['v'],1.0912139415740967,d,49.0
lattice,51,p,img/target_10.png,3,0,0.05000000074505806,1.0,108.33197784423828,['p'],1.0996229648590088,d,50.0
lattice,52,o,img/target_9.png,3,9,0.05000000074505806,1.0,109.53656768798828,['o'],2.086962938308716,d,51.0
lattice,53,b,img/target_6.png,3,7,0.05000000074505806,1.0,111.71625518798828,['b'],1.5147709846496582,d,52.0
lattice,54,e,img/target_3.png,3,5,0.05000000074505806,1.0,113.33257293701172,['e'],1.371009111404419,d,53.0
lattice,55,q,img/target_1.png,3,3,0.05000000074505806,1.0,114.7999038696289,['q'],1.1911568641662598,d,54.0
lattice,56,i,img/target_8.png,3,4,0.05000000074505806,0.0,116.08305358886719,['i'],2.428515911102295,d,55.0
lattice,57,e,img/target_3.png,3,5,0.05000000074505806,0.0,118.59974670410156,['e'],1.9514930248260498,d,56.0
lattice,58,b,img/target_6.png,3,7,0.05000000074505806,1.0,120.63308715820312,['b'],0.957719087600708,d,57.0
lattice,59,e,img/target_3.png,3,5,0.05000000074505806,1.0,121.68376159667969,['e'],1.635699987411499,d,58.0
lattice,60,i,img/target_8.png,3,4,0.05000000074505806,0.0,123.41771697998047,['i'],2.557529926300049,d,59.0
lattice,61,e,img/target_3.png,3,5,0.05000000074505806,1.0,126.05073547363281,['e'],1.5472221374511719,d,60.0
lattice,62,q,img/target_1.png,3,3,0.05000000074505806,1.0,127.70016479492188,['q'],1.378741979598999,d,61.0
lattice,63,i,img/target_8.png,3,4,0.05000000074505806,0.0,129.183837890625,['i'],1.9499680995941162,d,62.0
lattice,64,q,img/target_1.png,3,3,0.05000000074505806,1.0,131.21913146972656,['q'],0.5798728466033936,d,63.0
lattice,65,v,img/target_5.png,3,1,0.05000000074505806,1.0,131.90065002441406,['v'],0.9930760860443115,d,64.0
lattice,66,q,img/target_1.png,3,3,0.05000000074505806,1.0,132.9849853515625,['q'],0.7499630451202393,d,65.0
lattice,67,i,img/target_8.png,3,4,0.05000000074505806,0.0,133.83522033691406,['i'],1.9152858257293701,d,66.0
lattice,68,e,img/target_3.png,3,5,0.05000000074505806,1.0,135.83554077148438,['e'],1.426988124847412,d,67.0
lattice,69,q,img/target_1.png,3,3,0.05000000074505806,1.0,137.36888122558594,['q'],1.3572912216186523,d,68.0
lattice,70,i,img/target_8.png,3,4,0.05000000074505806,0.0,138.81884765625,['i'],2.4032812118530273,d,69.0
lattice,71,e,img/target_3.png,3,5,0.05000000074505806,1.0,141.303466796875,['e'],1.1661159992218018,d,70.0
lattice,72,q,img/target_1.png,3,3,0.05000000074505806,1.0,142.56851196289062,['q'],1.0531558990478516,d,71.0
lattice,73,u,img/target_7.png,3,2,0.05000000074505806,1.0,143.71946716308594,['u'],1.3820240497589111,d,72.0
lattice,74,v,img/target_5.png,3,1,0.05000000074505806,1.0,145.20315551757812,['v'],1.0912420749664307,d,73.0
lattice,75,u,img/target_7.png,3,2,0.05000000074505806,1.0,146.38575744628906,['u'],0.9077520370483398,d,74.0
lattice,76,p,img/target_10.png,3,0,0.05000000074505806,0.0,147.3860321044922,['p'],1.811255931854248,d,75.0
lattice,77,r,img/target_4.png,3,8,0.05000000074505806,1.0,149.28582763671875,['r'],1.2724828720092773,d,76.0
lattice,78,o,img/target_9.png,3,9,0.05000000074505806,0.0,150.65402221679688,['o'],3.062999963760376,d,77.0
lattice,79,v,img/target_5.png,3,1,0.05000000074505806,1.0,153.80490112304688,['v'],0.9771490097045898,d,78.0
lattice,80,q,img/target_1.png,3,3,0.05000000074505806,1.0,154.8869171142578,['q'],1.1992249488830566,d,79.0
lattice,81,e,img/target_3.png,3,5,0.05000000074505806,0.0,156.18641662597656,['e'],2.59493088722229,d,80.0
lattice,82,b,img/target_6.png,3,7,0.05000000074505806,1.0,158.8702850341797,['b'],1.2395350933074951,d,81.0
lattice,83,e,img/target_3.png,3,5,0.05000000074505806,0.0,160.20472717285156,['e'],2.4010181427001953,d,82.0
lattice,84,w,img/target_2.png,3,6,0.05000000074505806,1.0,162.6874542236328,['w'],1.3492751121520996,d,83.0
lattice,85,r,img/target_4.png,3,8,0.05000000074505806,1.0,164.13792419433594,['r'],1.0909168720245361,d,84.0
lattice,86,o,img/target_9.png,3,9,0.05000000074505806,0.0,165.32156372070312,['o'],2.3388919830322266,d,85.0
lattice,87,b,img/target_6.png,3,7,0.05000000074505806,1.0,167.73849487304688,['b'],1.418337106704712,d,86.0
lattice,88,o,img/target_9.png,3,9,0.05000000074505806,0.0,169.25437927246094,['o'],2.1987199783325195,d,87.0
lattice,89,r,img/target_4.png,3,8,0.05000000074505806,1.0,171.5391845703125,['r'],2.4423670768737793,d,88.0
lattice,90,p,img/target_10.png,3,0,0.05000000074505806,0.0,174.08888244628906,['p'],2.923504114151001,d,89.0
lattice,91,u,img/target_7.png,3,2,0.05000000074505806,1.0,177.08831787109375,['u'],1.404770851135254,d,90.0
lattice,92,i,img/target_8.png,3,4,0.05000000074505806,1.0,178.58961486816406,['i'],0.8863167762756348,d,91.0
lattice,93,w,img/target_2.png,3,6,0.05000000074505806,1.0,179.5727996826172,['w'],2.8481318950653076,d,92.0
lattice,94,b,img/target_6.png,3,7,0.05000000074505806,1.0,182.5227813720703,['b'],1.0979108810424805,d,93.0
lattice,95,r,img/target_4.png,3,8,0.05000000074505806,1.0,183.72230529785156,['r'],1.7784109115600586,d,94.0
lattice,96,p,img/target_10.png,3,0,0.05000000074505806,1.0,185.60653686523438,['p'],1.2853620052337646,d,95.0
lattice,97,r,img/target_4.png,3,8,0.05000000074505806,1.0,186.990234375,['r'],0.9024097919464111,d,96.0
lattice,98,w,img/target_2.png,3,6,0.05000000074505806,1.0,187.98928833007812,['w'],1.710407018661499,d,97.0
lattice,99,r,img/target_4.png,3,8,0.05000000074505806,1.0,189.79074096679688,['r'],1.6941039562225342,d,98.0
lattice,100,p,img/target_10.png,3,0,0.05000000074505806,1.0,191.59097290039062,['p'],1.404599905014038,d,99.0
lattice,101,r,img/target_4.png,3,8,0.05000000074505806,1.0,193.08982849121094,['r'],1.7386159896850586,d,100.0
lattice,102,p,img/target_10.png,3,0,0.05000000074505806,1.0,194.9254608154297,['p'],3.4149210453033447,d,101.0
lattice,103,o,img/target_9.png,3,9,0.05000000074505806,1.0,198.44029235839844,['o'],1.7001278400421143,d,102.0
lattice,104,r,img/target_4.png,3,8,0.05000000074505806,1.0,200.24179077148438,['r'],1.6335761547088623,d,103.0
lattice,105,b,img/target_6.png,3,7,0.05000000074505806,1.0,201.97398376464844,['b'],1.8454818725585938,d,104.0
lattice,106,o,img/target_9.png,3,9,0.05000000074505806,1.0,203.9077911376953,['o'],4.263498783111572,d,105.0
lattice,107,v,img/target_5.png,3,1,0.05000000074505806,1.0,208.274658203125,['v'],1.0565268993377686,d,106.0
lattice,108,o,img/target_9.png,3,9,0.05000000074505806,1.0,209.42520141601562,['o'],0.6503551006317139,d,107.0
lattice,109,b,img/target_6.png,3,7,0.05000000074505806,1.0,210.1764678955078,['b'],1.2758522033691406,d,108.0
lattice,110,w,img/target_2.png,3,6,0.05000000074505806,1.0,211.5596160888672,['w'],1.523360013961792,d,109.0
lattice,111,r,img/target_4.png,3,8,0.05000000074505806,1.0,213.17626953125,['r'],1.2359368801116943,d,110.0
lattice,112,b,img/target_6.png,3,7,0.05000000074505806,1.0,214.50973510742188,['b'],2.524976968765259,d,111.0
lattice,113,e,img/target_3.png,3,5,0.05000000074505806,1.0,217.126220703125,['e'],1.381885051727295,d,112.0
lattice,114,i,img/target_8.png,3,4,0.05000000074505806,1.0,218.6095428466797,['i'],6.545252799987793,d,113.0
lattice,115,u,img/target_7.png,3,2,0.05000000074505806,1.0,225.2442626953125,['u'],1.046138048171997,d,114.0
lattice,116,i,img/target_8.png,3,4,0.05000000074505806,1.0,226.39410400390625,['i'],0.7530350685119629,d,115.0
lattice,117,q,img/target_1.png,3,3,0.05000000074505806,1.0,227.24330139160156,['q'],1.9031150341033936,d,116.0
lattice,118,u,img/target_7.png,3,2,0.05000000074505806,1.0,229.24349975585938,['u'],1.574949026107788,d,117.0
lattice,119,p,img/target_10.png,3,0,0.05000000074505806,1.0,230.91075134277344,['p'],1.3804848194122314,d,118.0
lattice,120,u,img/target_7.png,3,2,0.05000000074505806,1.0,232.39373779296875,['u'],4.016419410705566,d,119.0
lattice,121,p,img/target_10.png,3,0,0.05000000074505806,1.0,236.5120086669922,['p'],1.5222349166870117,d,120.0
lattice,122,u,img/target_7.png,3,2,0.05000000074505806,1.0,238.12791442871094,['u'],1.9070470333099365,d,121.0
lattice,123,p,img/target_10.png,3,0,0.05000000074505806,1.0,240.12814331054688,['p'],1.226135015487671,d,122.0
lattice,124,v,img/target_5.png,3,1,0.05000000074505806,1.0,241.44540405273438,['v'],1.1808969974517822,d,123.0
lattice,125,o,img/target_9.png,3,9,0.05000000074505806,1.0,242.72808837890625,['o'],3.426036834716797,d,124.0
lattice,126,v,img/target_5.png,3,1,0.05000000074505806,1.0,246.2490234375,['v'],1.2099010944366455,d,125.0
lattice,127,u,img/target_7.png,3,2,0.05000000074505806,1.0,247.5618133544922,['u'],3.3518359661102295,d,126.0
lattice,128,i,img/target_8.png,3,4,0.05000000074505806,1.0,251.012939453125,['i'],0.8456859588623047,d,127.0
lattice,129,q,img/target_1.png,3,3,0.05000000074505806,1.0,251.96214294433594,['q'],1.3752989768981934,d,128.0
lattice,130,u,img/target_7.png,3,2,0.05000000074505806,1.0,253.4297637939453,['u'],3.435805082321167,d,129.0
lattice,131,v,img/target_5.png,3,1,0.05000000074505806,1.0,256.9795837402344,['v'],1.0457289218902588,d,130.0
lattice,132,u,img/target_7.png,3,2,0.05000000074505806,1.0,258.1305236816406,['u'],2.9108691215515137,d,131.0
lattice,133,q,img/target_1.png,3,3,0.05000000074505806,1.0,261.1300354003906,['q'],1.1520729064941406,d,132.0
lattice,134,v,img/target_5.png,3,1,0.05000000074505806,1.0,262.3798828125,['v'],1.1894350051879883,d,133.0
lattice,135,q,img/target_1.png,3,3,0.05000000074505806,1.0,263.6636657714844,['q'],1.849581003189087,d,134.0
lattice,136,u,img/target_7.png,3,2,0.05000000074505806,1.0,265.61370849609375,['u'],2.4122939109802246,d,135.0
lattice,137,q,img/target_1.png,3,3,0.05000000074505806,1.0,268.13153076171875,['q'],1.8544161319732666,d,136.0
lattice,138,i,img/target_8.png,3,4,0.05000000074505806,1.0,270.0813903808594,['i'],6.095591068267822,d,137.0
lattice,139,e,img/target_3.png,3,5,0.05000000074505806,1.0,276.2826232910156,['e'],2.6070501804351807,d,138.0
lattice,140,q,img/target_1.png,3,3,0.05000000074505806,1.0,278.9825744628906,['q'],1.4179270267486572,d,139.0
lattice,141,v,img/target_5.png,3,1,0.05000000074505806,1.0,280.49847412109375,['v'],1.0306260585784912,d,140.0
lattice,142,u,img/target_7.png,3,2,0.05000000074505806,1.0,281.63287353515625,['u'],3.0806491374969482,d,141.0
lattice,143,i,img/target_8.png,3,4,0.05000000074505806,1.0,284.8153076171875,['i'],1.3223731517791748,d,142.0
lattice,144,w,img/target_2.png,3,6,0.05000000074505806,1.0,286.2323913574219,['w'],2.5599310398101807,d,143.0
lattice,145,e,img/target_3.png,3,5,0.05000000074505806,1.0,288.8832092285156,['e'],1.0540249347686768,d,144.0
lattice,146,i,img/target_8.png,3,4,0.05000000074505806,1.0,290.03240966796875,['i'],3.719650983810425,d,145.0
lattice,147,e,img/target_3.png,3,5,0.05000000074505806,1.0,293.8507080078125,['e'],5.214111328125,d,146.0
lattice,148,i,img/target_8.png,3,4,0.05000000074505806,1.0,299.1675109863281,['i'],3.9216930866241455,d,147.0
lattice,149,q,img/target_1.png,3,3,0.05000000074505806,1.0,303.18487548828125,['q'],1.3828539848327637,d,148.0
lattice,150,v,img/target_5.png,3,1,0.05000000074505806,1.0,304.6684265136719,['v'],1.1872608661651611,d,149.0
lattice,151,u,img/target_7.png,3,2,0.05000000074505806,1.0,305.95159912109375,['u'],3.080069065093994,d,150.0
lattice,152,p,img/target_10.png,3,0,0.05000000074505806,1.0,309.134521484375,['p'],1.194098949432373,d,151.0
lattice,153,o,img/target_9.png,3,9,0.05000000074505806,1.0,310.43560791015625,['o'],0.9569168090820312,d,152.0
lattice,154,r,img/target_4.png,3,8,0.05000000074505806,1.0,311.4849548339844,['r'],3.5704808235168457,d,153.0
lattice,155,p,img/target_10.png,3,0,0.05000000074505806,1.0,315.1516418457031,['p'],1.1526708602905273,d,154.0
lattice,156,v,img/target_5.png,3,1,0.05000000074505806,1.0,316.40289306640625,['v'],1.1173498630523682,d,155.0
lattice,157,o,img/target_9.png,3,9,0.05000000074505806,1.0,317.61846923828125,['o'],1.525609016418457,d,156.0
lattice,158,p,img/target_10.png,3,0,0.05000000074505806,1.0,319.2359313964844,['p'],0.7642889022827148,d,157.0
lattice,159,u,img/target_7.png,3,2,0.05000000074505806,1.0,320.1020812988281,['u'],2.54506516456604,d,158.0
lattice,160,v,img/target_5.png,3,1,0.05000000074505806,1.0,322.73583984375,['v'],1.0952551364898682,d,159.0
lattice,161,u,img/target_7.png,3,2,0.05000000074505806,1.0,323.9371337890625,['u'],2.942030906677246,d,160.0
lattice,162,v,img/target_5.png,3,1,0.05000000074505806,1.0,326.97027587890625,['v'],0.9419059753417969,d,161.0
lattice,163,q,img/target_1.png,3,3,0.05000000074505806,1.0,328.0194396972656,['q'],1.2034828662872314,d,162.0
lattice,164,u,img/target_7.png,3,2,0.05000000074505806,1.0,329.3199768066406,['u'],1.9758660793304443,d,163.0
lattice,165,q,img/target_1.png,3,3,0.05000000074505806,1.0,331.4044189453125,['q'],1.0753459930419922,d,164.0
lattice,166,e,img/target_3.png,3,5,0.05000000074505806,1.0,332.5873107910156,['e'],2.372606039047241,d,165.0
lattice,167,q,img/target_1.png,3,3,0.05000000074505806,1.0,335.05487060546875,['q'],1.2477030754089355,d,166.0
lattice,168,e,img/target_3.png,3,5,0.05000000074505806,1.0,336.40472412109375,['e'],2.450977087020874,d,167.0
lattice,169,b,img/target_6.png,3,7,0.05000000074505806,1.0,338.9576416015625,['b'],1.3769559860229492,d,168.0
lattice,170,w,img/target_2.png,3,6,0.05000000074505806,1.0,340.43853759765625,['w'],1.4167888164520264,d,169.0
lattice,171,i,img/target_8.png,3,4,0.05000000074505806,1.0,341.9554443359375,['i'],1.8761701583862305,d,170.0
lattice,172,w,img/target_2.png,3,6,0.05000000074505806,1.0,343.94110107421875,['w'],1.1302931308746338,d,171.0
lattice,173,e,img/target_3.png,3,5,0.05000000074505806,1.0,345.1723327636719,['e'],1.0829229354858398,d,172.0
lattice,174,b,img/target_6.png,3,7,0.05000000074505806,1.0,346.3555908203125,['b'],1.7231109142303467,d,173.0
lattice,175,o,img/target_9.png,3,9,0.05000000074505806,1.0,348.1713562011719,['o'],1.587265968322754,d,174.0
lattice,176,r,img/target_4.png,3,8,0.05000000074505806,1.0,349.855224609375,['r'],3.47878098487854,d,175.0
lattice,177,p,img/target_10.png,3,0,0.05000000074505806,1.0,353.4384765625,['p'],0.9600210189819336,d,176.0
lattice,178,r,img/target_4.png,3,8,0.05000000074505806,1.0,354.4898376464844,['r'],1.093186855316162,d,177.0
lattice,179,w,img/target_2.png,3,6,0.05000000074505806,1.0,355.68975830078125,['w'],2.0121350288391113,d,178.0
lattice,180,e,img/target_3.png,3,5,0.05000000074505806,1.0,357.8057861328125,['e'],2.896949052810669,d,179.0
lattice,181,b,img/target_6.png,3,7,0.05000000074505806,1.0,360.8063049316406,['b'],1.4153928756713867,d,180.0
lattice,182,e,img/target_3.png,3,5,0.05000000074505806,0.0,362.3226623535156,['e'],4.587076187133789,d,181.0
lattice,183,w,img/target_2.png,3,6,0.05000000074505806,1.0,366.9899597167969,['w'],2.6004748344421387,d,182.0
lattice,184,b,img/target_6.png,3,7,0.05000000074505806,1.0,369.6899108886719,['b'],3.3075318336486816,d,183.0
lattice,185,o,img/target_9.png,3,9,0.05000000074505806,1.0,373.0906982421875,['o'],2.011439085006714,d,184.0
lattice,186,v,img/target_5.png,3,1,0.05000000074505806,1.0,375.2077941894531,['v'],1.1735470294952393,d,185.0
lattice,187,u,img/target_7.png,3,2,0.05000000074505806,1.0,376.47454833984375,['u'],3.507719039916992,d,186.0
lattice,188,q,img/target_1.png,3,3,0.05000000074505806,1.0,380.0745544433594,['q'],2.2665200233459473,d,187.0
lattice,189,e,img/target_3.png,3,5,0.05000000074505806,1.0,382.441162109375,['e'],1.9969849586486816,d,188.0
lattice,190,i,img/target_8.png,3,4,0.05000000074505806,1.0,384.54168701171875,['i'],4.1842041015625,d,189.0
lattice,191,e,img/target_3.png,3,5,0.05000000074505806,1.0,388.8261413574219,['e'],2.667759895324707,d,190.0
lattice,192,b,img/target_6.png,3,7,0.05000000074505806,1.0,391.5937194824219,['b'],1.2114830017089844,d,191.0
lattice,193,r,img/target_4.png,3,8,0.05000000074505806,1.0,392.9089660644531,['r'],1.3686549663543701,d,192.0
lattice,194,p,img/target_10.png,3,0,0.05000000074505806,1.0,394.375732421875,['p'],1.204822063446045,d,193.0
lattice,195,o,img/target_9.png,3,9,0.05000000074505806,1.0,395.6817932128906,['o'],0.8677968978881836,d,194.0
lattice,196,r,img/target_4.png,3,8,0.05000000074505806,1.0,396.64337158203125,['r'],1.609138011932373,d,195.0
lattice,197,o,img/target_9.png,3,9,0.05000000074505806,1.0,398.34356689453125,['o'],2.020983934402466,d,196.0
lattice,198,v,img/target_5.png,3,1,0.05000000074505806,1.0,400.4607238769531,['v'],1.0165798664093018,d,197.0
lattice,199,u,img/target_7.png,3,2,0.05000000074505806,1.0,401.5780029296875,['u'],2.8832218647003174,d,198.0
lattice,200,p,img/target_10.png,3,0,0.05000000074505806,1.0,404.5602722167969,['p'],1.0528779029846191,d,199.0
lattice,201,o,img/target_9.png,3,9,0.05000000074505806,1.0,405.7114562988281,['o'],0.8618879318237305,d,200.0
lattice,202,v,img/target_5.png,3,1,0.05000000074505806,1.0,406.67791748046875,['v'],1.0942950248718262,d,201.0
lattice,203,p,img/target_10.png,3,0,0.05000000074505806,1.0,407.8778076171875,['p'],0.9275848865509033,d,202.0
lattice,204,u,img/target_7.png,3,2,0.05000000074505806,1.0,408.91143798828125,['u'],3.4217441082000732,d,203.0
lattice,205,v,img/target_5.png,3,1,0.05000000074505806,1.0,412.4288330078125,['v'],0.9196059703826904,d,204.0
lattice,206,q,img/target_1.png,3,3,0.05000000074505806,1.0,413.4451599121094,['q'],1.1758778095245361,d,205.0
lattice,207,v,img/target_5.png,3,1,0.05000000074505806,1.0,414.7283935546875,['v'],1.0755748748779297,d,206.0
lattice,208,q,img/target_1.png,3,3,0.05000000074505806,1.0,415.89544677734375,['q'],0.9809000492095947,d,207.0
lattice,209,u,img/target_7.png,3,2,0.05000000074505806,1.0,416.979248046875,['u'],2.44179105758667,d,208.0
lattice,210,q,img/target_1.png,3,3,0.05000000074505806,1.0,419.5289306640625,['q'],1.2908961772918701,d,209.0
lattice,211,i,img/target_8.png,3,4,0.05000000074505806,1.0,420.9118957519531,['i'],4.052616119384766,d,210.0
lattice,212,q,img/target_1.png,3,3,0.05000000074505806,1.0,425.0624694824219,['q'],2.0301241874694824,d,211.0
lattice,213,u,img/target_7.png,3,2,0.05000000074505806,1.0,427.1966552734375,['u'],2.158674955368042,d,212.0
lattice,214,i,img/target_8.png,3,4,0.05000000074505806,1.0,429.4463806152344,['i'],1.2449359893798828,d,213.0
lattice,215,w,img/target_2.png,3,6,0.05000000074505806,1.0,430.796875,['w'],1.2942509651184082,d,214.0
lattice,216,r,img/target_4.png,3,8,0.05000000074505806,1.0,432.1970520019531,['r'],1.0627741813659668,d,215.0
lattice,217,o,img/target_9.png,3,9,0.05000000074505806,1.0,433.3630065917969,['o'],1.18495512008667,d,216.0
lattice,218,v,img/target_5.png,3,1,0.05000000074505806,1.0,434.6496887207031,['v'],0.9055941104888916,d,217.0
lattice,219,o,img/target_9.png,3,9,0.05000000074505806,1.0,435.64727783203125,['o'],1.3719680309295654,d,218.0
lattice,220,p,img/target_10.png,3,0,0.05000000074505806,1.0,437.11431884765625,['p'],0.9219241142272949,d,219.0
lattice,221,v,img/target_5.png,3,1,0.05000000074505806,1.0,438.1306457519531,['v'],0.9923079013824463,d,220.0
lattice,222,p,img/target_10.png,3,0,0.05000000074505806,1.0,439.2143249511719,['p'],1.36586594581604,d,221.0
lattice,223,u,img/target_7.png,3,2,0.05000000074505806,1.0,440.6853332519531,['u'],1.5828189849853516,d,222.0
lattice,224,i,img/target_8.png,3,4,0.05000000074505806,1.0,442.3655700683594,['i'],3.438538074493408,d,223.0
lattice,225,e,img/target_3.png,3,5,0.05000000074505806,1.0,445.8987121582031,['e'],2.0811400413513184,d,224.0
lattice,226,b,img/target_6.png,3,7,0.05000000074505806,1.0,448.0806579589844,['b'],1.2106060981750488,d,225.0
lattice,227,o,img/target_9.png,3,9,0.05000000074505806,1.0,449.3817138671875,['o'],1.3494210243225098,d,226.0
lattice,228,b,img/target_6.png,3,7,0.05000000074505806,1.0,450.8366394042969,['b'],1.4060349464416504,d,227.0
lattice,229,r,img/target_4.png,3,8,0.05000000074505806,1.0,452.35247802734375,['r'],1.1941440105438232,d,228.0
lattice,230,w,img/target_2.png,3,6,0.05000000074505806,1.0,453.64801025390625,['w'],1.563391923904419,d,229.0
lattice,231,e,img/target_3.png,3,5,0.05000000074505806,1.0,455.3153991699219,['e'],1.055176019668579,d,230.0
lattice,232,i,img/target_8.png,3,4,0.05000000074505806,1.0,456.4651184082031,['i'],3.2742679119110107,d,231.0
lattice,233,u,img/target_7.png,3,2,0.05000000074505806,1.0,459.8320617675781,['u'],0.9141848087310791,d,232.0
lattice,234,v,img/target_5.png,3,1,0.05000000074505806,1.0,460.8489685058594,['v'],0.9301888942718506,d,233.0
lattice,235,q,img/target_1.png,3,3,0.05000000074505806,1.0,461.88543701171875,['q'],1.3579370975494385,d,234.0
lattice,236,e,img/target_3.png,3,5,0.05000000074505806,1.0,463.3489074707031,['e'],1.3175139427185059,d,235.0
lattice,237,w,img/target_2.png,3,6,0.05000000074505806,1.0,464.7693176269531,['w'],0.936959981918335,d,236.0
lattice,238,b,img/target_6.png,3,7,0.05000000074505806,1.0,465.7998046875,['b'],1.3072690963745117,d,237.0
lattice,239,e,img/target_3.png,3,5,0.05000000074505806,1.0,467.2005310058594,['e'],3.0174849033355713,d,238.0
lattice,240,q,img/target_1.png,3,3,0.05000000074505806,1.0,470.3173522949219,['q'],1.5896191596984863,d,239.0
lattice,241,i,img/target_8.png,3,4,0.05000000074505806,1.0,472.000732421875,['i'],2.865206003189087,d,240.0
lattice,242,w,img/target_2.png,3,6,0.05000000074505806,1.0,474.96710205078125,['w'],1.714818000793457,d,241.0
lattice,243,b,img/target_6.png,3,7,0.05000000074505806,1.0,476.7849426269531,['b'],1.1773738861083984,d,242.0
lattice,244,e,img/target_3.png,3,5,0.05000000074505806,1.0,478.0673828125,['e'],1.9982240200042725,d,243.0
lattice,245,b,img/target_6.png,3,7,0.05000000074505806,1.0,480.1673583984375,['b'],1.3710229396820068,d,244.0
lattice,246,e,img/target_3.png,3,5,0.05000000074505806,1.0,481.6351013183594,['e'],1.7744238376617432,d,245.0
lattice,247,i,img/target_8.png,3,4,0.05000000074505806,1.0,483.501953125,['i'],2.2435450553894043,d,246.0
lattice,248,u,img/target_7.png,3,2,0.05000000074505806,1.0,485.8355712890625,['u'],0.8230240345001221,d,247.0
lattice,249,p,img/target_10.png,3,0,0.05000000074505806,1.0,486.7525329589844,['p'],0.9056558609008789,d,248.0
lattice,250,r,img/target_4.png,3,8,0.05000000074505806,1.0,487.7524108886719,['r'],1.2970099449157715,d,249.0
lattice,251,b,img/target_6.png,3,7,0.05000000074505806,1.0,489.15240478515625,['b'],0.9857921600341797,d,250.0
lattice,252,e,img/target_3.png,3,5,0.05000000074505806,1.0,490.2393493652344,['e'],1.730057954788208,d,251.0
lattice,253,q,img/target_1.png,3,3,0.05000000074505806,1.0,492.06976318359375,['q'],1.6922152042388916,d,252.0
lattice,254,e,img/target_3.png,3,5,0.05000000074505806,1.0,493.8685302734375,['e'],2.0693600177764893,d,253.0
lattice,255,i,img/target_8.png,3,4,0.05000000074505806,1.0,496.03643798828125,['i'],2.069705009460449,d,254.0
lattice,256,w,img/target_2.png,3,6,0.05000000074505806,1.0,498.2041320800781,['w'],1.9980220794677734,d,255.0
lattice,257,e,img/target_3.png,3,5,0.05000000074505806,1.0,500.3037414550781,['e'],1.2091598510742188,d,256.0
lattice,258,w,img/target_2.png,3,6,0.05000000074505806,1.0,501.60260009765625,['w'],1.0702719688415527,d,257.0
lattice,259,i,img/target_8.png,3,4,0.05000000074505806,1.0,502.77044677734375,['i'],2.918367862701416,d,258.0
lattice,260,e,img/target_3.png,3,5,0.05000000074505806,1.0,505.7864685058594,['e'],1.767397165298462,d,259.0
lattice,261,b,img/target_6.png,3,7,0.05000000074505806,1.0,507.65362548828125,['b'],1.2279870510101318,d,260.0
lattice,262,w,img/target_2.png,3,6,0.05000000074505806,1.0,508.9867248535156,['w'],1.8217639923095703,d,261.0
lattice,263,b,img/target_6.png,3,7,0.05000000074505806,1.0,510.9049072265625,['b'],1.120481014251709,d,262.0
lattice,264,r,img/target_4.png,3,8,0.05000000074505806,1.0,512.12158203125,['r'],1.1509268283843994,d,263.0
lattice,265,w,img/target_2.png,3,6,0.05000000074505806,1.0,513.3704833984375,['w'],1.1427850723266602,d,264.0
lattice,266,b,img/target_6.png,3,7,0.05000000074505806,1.0,514.6212158203125,['b'],1.0921509265899658,d,265.0
lattice,267,w,img/target_2.png,3,6,0.05000000074505806,1.0,515.804931640625,['w'],2.267359972000122,d,266.0
lattice,268,i,img/target_8.png,3,4,0.05000000074505806,1.0,518.1712646484375,['i'],2.437160015106201,d,267.0
lattice,269,e,img/target_3.png,3,5,0.05000000074505806,1.0,520.7047119140625,['e'],1.3283679485321045,d,268.0
lattice,270,q,img/target_1.png,3,3,0.05000000074505806,1.0,522.13916015625,['q'],1.5501420497894287,d,269.0
lattice,271,v,img/target_5.png,3,1,0.05000000074505806,1.0,523.7881469726562,['v'],0.9558858871459961,d,270.0
lattice,272,u,img/target_7.png,3,2,0.05000000074505806,1.0,524.8392333984375,['u'],2.688814878463745,d,271.0
lattice,273,q,img/target_1.png,3,3,0.05000000074505806,1.0,527.6229858398438,['q'],1.3781208992004395,d,272.0
lattice,274,e,img/target_3.png,3,5,0.05000000074505806,1.0,529.1055297851562,['e'],1.4791879653930664,d,273.0
lattice,275,b,img/target_6.png,3,7,0.05000000074505806,1.0,530.6897583007812,['b'],1.1910009384155273,d,274.0
lattice,276,w,img/target_2.png,3,6,0.05000000074505806,1.0,531.9755249023438,['w'],1.9923489093780518,d,275.0
lattice,277,r,img/target_4.png,3,8,0.05000000074505806,1.0,534.0735473632812,['r'],1.1113088130950928,d,276.0
lattice,278,w,img/target_2.png,3,6,0.05000000074505806,1.0,535.2901611328125,['w'],1.1094188690185547,d,277.0
lattice,279,e,img/target_3.png,3,5,0.05000000074505806,1.0,536.490478515625,['e'],0.941972017288208,d,278.0
lattice,280,w,img/target_2.png,3,6,0.05000000074505806,1.0,537.5239868164062,['w'],0.5725829601287842,d,279.0
lattice,281,e,img/target_3.png,3,5,0.05000000074505806,1.0,538.1905517578125,['e'],0.5214521884918213,d,280.0
lattice,282,b,img/target_6.png,3,7,0.05000000074505806,1.0,538.8075561523438,['b'],1.0159618854522705,d,281.0
lattice,283,w,img/target_2.png,3,6,0.05000000074505806,1.0,539.923828125,['w'],1.500581979751587,d,282.0
lattice,284,i,img/target_8.png,3,4,0.05000000074505806,1.0,541.5232543945312,['i'],1.8613169193267822,d,283.0
lattice,285,e,img/target_3.png,3,5,0.05000000074505806,0.0,543.4898071289062,['e'],1.9586191177368164,d,284.0
lattice,286,i,img/target_8.png,3,4,0.05000000074505806,1.0,545.5238037109375,['i'],3.0594329833984375,d,285.0
lattice,287,e,img/target_3.png,3,5,0.05000000074505806,1.0,548.6741943359375,['e'],2.452794075012207,d,286.0
lattice,288,b,img/target_6.png,3,7,0.05000000074505806,1.0,551.2247314453125,['b'],1.6061830520629883,d,287.0
lattice,289,e,img/target_3.png,3,5,0.05000000074505806,1.0,552.9256591796875,['e'],2.2986788749694824,d,288.0
lattice,290,q,img/target_1.png,3,3,0.05000000074505806,1.0,555.3257446289062,['q'],1.3142118453979492,d,289.0
lattice,291,e,img/target_3.png,3,5,0.05000000074505806,1.0,556.7426147460938,['e'],1.8251690864562988,d,290.0
lattice,292,i,img/target_8.png,3,4,0.05000000074505806,1.0,558.6748657226562,['i'],2.3649120330810547,d,291.0
lattice,293,e,img/target_3.png,3,5,0.05000000074505806,1.0,561.1420288085938,['e'],1.920741081237793,d,292.0
lattice,294,b,img/target_6.png,3,7,0.05000000074505806,1.0,563.159423828125,['b'],1.2959771156311035,d,293.0
lattice,295,r,img/target_4.png,3,8,0.05000000074505806,1.0,564.5589599609375,['r'],2.2247118949890137,d,294.0
lattice,296,b,img/target_6.png,3,7,0.05000000074505806,1.0,566.876220703125,['b'],1.147251844406128,d,295.0
lattice,297,w,img/target_2.png,3,6,0.05000000074505806,1.0,568.1264038085938,['w'],1.7288908958435059,d,296.0
lattice,298,b,img/target_6.png,3,7,0.05000000074505806,1.0,569.964111328125,['b'],1.3471660614013672,d,297.0
lattice,299,w,img/target_2.png,3,6,0.05000000074505806,1.0,571.4095458984375,['w'],1.6208910942077637,d,298.0
lattice,300,b,img/target_6.png,3,7,0.05000000074505806,1.0,573.128173828125,['b'],1.0145790576934814,d,299.0
lattice,301,r,img/target_4.png,3,8,0.05000000074505806,1.0,574.2637329101562,['r'],1.2070798873901367,d,300.0
lattice,302,w,img/target_2.png,3,6,0.05000000074505806,1.0,575.5819091796875,['w'],1.1124961376190186,d,301.0
lattice,303,b,img/target_6.png,3,7,0.05000000074505806,1.0,576.80078125,['b'],1.3334648609161377,d,302.0
lattice,304,w,img/target_2.png,3,6,0.05000000074505806,1.0,578.2272338867188,['w'],1.2676010131835938,d,303.0
lattice,305,i,img/target_8.png,3,4,0.05000000074505806,1.0,579.593505859375,['i'],2.9407551288604736,d,304.0
lattice,306,e,img/target_3.png,3,5,0.05000000074505806,1.0,582.6444702148438,['e'],1.7945499420166016,d,305.0
lattice,307,b,img/target_6.png,3,7,0.05000000074505806,1.0,584.5441284179688,['b'],1.0066578388214111,d,306.0
lattice,308,o,img/target_9.png,3,9,0.05000000074505806,1.0,585.6448974609375,['o'],2.688952922821045,d,307.0
lattice,309,p,img/target_10.png,3,0,0.05000000074505806,1.0,588.4285278320312,['p'],0.6501450538635254,d,308.0
lattice,310,u,img/target_7.png,3,2,0.05000000074505806,1.0,589.1787109375,['u'],1.2432329654693604,d,309.0
lattice,311,i,img/target_8.png,3,4,0.05000000074505806,1.0,590.5113525390625,['i'],0.7663028240203857,d,310.0
lattice,312,e,img/target_3.png,3,5,0.05000000074505806,1.0,591.3779296875,['e'],1.6997900009155273,d,311.0
lattice,313,w,img/target_2.png,3,6,0.05000000074505806,1.0,593.1783447265625,['w'],0.7564859390258789,d,312.0
lattice,314,i,img/target_8.png,3,4,0.05000000074505806,1.0,594.0289306640625,['i'],3.9125540256500244,d,313.0
lattice,315,u,img/target_7.png,3,2,0.05000000074505806,1.0,598.0467529296875,['u'],0.8236391544342041,d,314.0
lattice,316,i,img/target_8.png,3,4,0.05000000074505806,1.0,598.9627685546875,['i'],0.6195008754730225,d,315.0
lattice,317,u,img/target_7.png,3,2,0.05000000074505806,1.0,599.6797485351562,['u'],0.5495541095733643,d,316.0
lattice,318,v,img/target_5.png,3,1,0.05000000074505806,1.0,600.3294067382812,['v'],0.9799768924713135,d,317.0
lattice,319,p,img/target_10.png,3,0,0.05000000074505806,1.0,601.413330078125,['p'],1.0005171298980713,d,318.0
lattice,320,u,img/target_7.png,3,2,0.05000000074505806,1.0,602.5136108398438,['u'],1.0927948951721191,d,319.0
lattice,321,i,img/target_8.png,3,4,0.05000000074505806,1.0,603.7135620117188,['i'],0.6199607849121094,d,320.0
lattice,322,e,img/target_3.png,3,5,0.05000000074505806,1.0,604.4300537109375,['e'],1.4562931060791016,d,321.0
lattice,323,b,img/target_6.png,3,7,0.05000000074505806,1.0,605.9794921875,['b'],0.9695911407470703,d,322.0
lattice,324,w,img/target_2.png,3,6,0.05000000074505806,1.0,607.0469360351562,['w'],1.2631659507751465,d,323.0
lattice,325,i,img/target_8.png,3,4,0.05000000074505806,1.0,608.4127807617188,['i'],1.872107982635498,d,324.0
lattice,326,e,img/target_3.png,3,5,0.05000000074505806,1.0,610.3807373046875,['e'],1.8564200401306152,d,325.0
lattice,327,b,img/target_6.png,3,7,0.05000000074505806,1.0,612.331298828125,['b'],1.098672866821289,d,326.0
lattice,328,e,img/target_3.png,3,5,0.05000000074505806,1.0,613.5302124023438,['e'],1.6110970973968506,d,327.0
lattice,329,b,img/target_6.png,3,7,0.05000000074505806,1.0,615.2300415039062,['b'],1.038783073425293,d,328.0
lattice,330,o,img/target_9.png,3,9,0.05000000074505806,1.0,616.3646850585938,['o'],1.665132999420166,d,329.0
lattice,331,p,img/target_10.png,3,0,0.05000000074505806,1.0,618.131591796875,['p'],0.6583991050720215,d,330.0
lattice,332,r,img/target_4.png,3,8,0.05000000074505806,1.0,618.9012451171875,['r'],3.655393123626709,d,331.0
lattice,333,w,img/target_2.png,3,6,0.05000000074505806,1.0,622.6484375,['w'],1.2286369800567627,d,332.0
lattice,334,i,img/target_8.png,3,4,0.05000000074505806,1.0,623.9813232421875,['i'],2.5592141151428223,d,333.0
lattice,335,e,img/target_3.png,3,5,0.05000000074505806,1.0,626.6319580078125,['e'],1.8050339221954346,d,334.0
lattice,336,i,img/target_8.png,3,4,0.05000000074505806,1.0,628.5321044921875,['i'],1.4806749820709229,d,335.0
lattice,337,e,img/target_3.png,3,5,0.05000000074505806,1.0,630.1149291992188,['e'],2.713495969772339,d,336.0
lattice,338,i,img/target_8.png,3,4,0.05000000074505806,1.0,632.9330444335938,['i'],1.7912240028381348,d,337.0
lattice,339,w,img/target_2.png,3,6,0.05000000074505806,1.0,634.8163452148438,['w'],3.085036039352417,d,338.0
lattice,340,b,img/target_6.png,3,7,0.05000000074505806,1.0,638.00048828125,['b'],0.9475669860839844,d,339.0
lattice,341,e,img/target_3.png,3,5,0.05000000074505806,1.0,639.050537109375,['e'],1.9053750038146973,d,340.0
lattice,342,q,img/target_1.png,3,3,0.05000000074505806,1.0,641.05029296875,['q'],0.9937000274658203,d,341.0
lattice,343,i,img/target_8.png,3,4,0.05000000074505806,1.0,642.1375122070312,['i'],2.482511043548584,d,342.0
lattice,344,u,img/target_7.png,3,2,0.05000000074505806,1.0,644.7166137695312,['u'],0.8643701076507568,d,343.0
lattice,345,v,img/target_5.png,3,1,0.05000000074505806,1.0,645.6841430664062,['v'],0.9517309665679932,d,344.0
lattice,346,p,img/target_10.png,3,0,0.05000000074505806,1.0,646.7346801757812,['p'],0.8940720558166504,d,345.0
lattice,347,v,img/target_5.png,3,1,0.05000000074505806,1.0,647.7376098632812,['v'],1.0111770629882812,d,346.0
lattice,348,u,img/target_7.png,3,2,0.05000000074505806,1.0,648.849853515625,['u'],2.577723979949951,d,347.0
lattice,349,p,img/target_10.png,3,0,0.05000000074505806,1.0,651.5169677734375,['p'],0.9511640071868896,d,348.0
lattice,350,o,img/target_9.png,3,9,0.05000000074505806,1.0,652.568115234375,['o'],0.6354479789733887,d,349.0
lattice,351,b,img/target_6.png,3,7,0.05000000074505806,0.0,653.3004150390625,['b'],1.4161109924316406,d,350.0
lattice,352,r,img/target_4.png,3,8,0.05000000074505806,0.0,654.80322265625,['r'],2.6881370544433594,d,351.0
lattice,353,b,img/target_6.png,3,7,0.05000000074505806,0.0,657.5689697265625,['b'],2.7387170791625977,d,352.0
lattice,354,o,img/target_9.png,3,9,0.05000000074505806,0.0,660.3847045898438,['o'],2.8906071186065674,d,353.0
lattice,355,p,img/target_10.png,3,0,0.05000000074505806,1.0,663.3515014648438,['p'],1.068298101425171,d,354.0
lattice,356,o,img/target_9.png,3,9,0.05000000074505806,1.0,664.5214233398438,['o'],0.5617761611938477,d,355.0
lattice,357,b,img/target_6.png,3,7,0.05000000074505806,1.0,665.184814453125,['b'],1.2986419200897217,d,356.0
lattice,358,e,img/target_3.png,3,5,0.05000000074505806,1.0,666.5862426757812,['e'],2.368803024291992,d,357.0
lattice,359,w,img/target_2.png,3,6,0.05000000074505806,1.0,669.052734375,['w'],0.5990860462188721,d,358.0
lattice,360,b,img/target_6.png,3,7,0.05000000074505806,1.0,669.751953125,['b'],1.0270349979400635,d,359.0
lattice,361,e,img/target_3.png,3,5,0.05000000074505806,1.0,670.8688354492188,['e'],2.1499669551849365,d,360.0
lattice,362,b,img/target_6.png,3,7,0.05000000074505806,1.0,673.1199340820312,['b'],1.146794080734253,d,361.0
lattice,363,w,img/target_2.png,3,6,0.05000000074505806,1.0,674.3864135742188,['w'],1.4494259357452393,d,362.0
lattice,364,r,img/target_4.png,3,8,0.05000000074505806,1.0,675.9375610351562,['r'],1.6810932159423828,d,363.0
lattice,365,p,img/target_10.png,3,0,0.05000000074505806,1.0,677.72021484375,['p'],1.1544229984283447,d,364.0
lattice,366,v,img/target_5.png,3,1,0.05000000074505806,1.0,678.9702758789062,['v'],1.1442980766296387,d,365.0
lattice,367,o,img/target_9.png,3,9,0.05000000074505806,1.0,680.2027587890625,['o'],1.039759874343872,d,366.0
lattice,368,r,img/target_4.png,3,8,0.05000000074505806,1.0,681.3374633789062,['r'],2.3050811290740967,d,367.0
lattice,369,w,img/target_2.png,3,6,0.05000000074505806,1.0,683.737548828125,['w'],1.1930570602416992,d,368.0
lattice,370,e,img/target_3.png,3,5,0.05000000074505806,1.0,685.0206909179688,['e'],0.8935699462890625,d,369.0
lattice,371,q,img/target_1.png,3,3,0.05000000074505806,1.0,686.0035400390625,['q'],1.246967077255249,d,370.0
lattice,372,i,img/target_8.png,3,4,0.05000000074505806,1.0,687.3600463867188,['i'],2.9471869468688965,d,371.0
lattice,373,q,img/target_1.png,3,3,0.05000000074505806,1.0,690.405029296875,['q'],1.261091947555542,d,372.0
lattice,374,e,img/target_3.png,3,5,0.05000000074505806,1.0,691.771484375,['e'],1.3907129764556885,d,373.0
lattice,375,i,img/target_8.png,3,4,0.05000000074505806,1.0,693.254150390625,['i'],1.893082857131958,d,374.0
lattice,376,q,img/target_1.png,3,3,0.05000000074505806,1.0,695.2546997070312,['q'],1.2121739387512207,d,375.0
lattice,377,i,img/target_8.png,3,4,0.05000000074505806,1.0,696.5722045898438,['i'],1.5027899742126465,d,376.0
lattice,378,w,img/target_2.png,3,6,0.05000000074505806,1.0,698.172607421875,['w'],1.1493639945983887,d,377.0
lattice,379,b,img/target_6.png,3,7,0.05000000074505806,1.0,699.4215698242188,['b'],1.1563808917999268,d,378.0
lattice,380,e,img/target_3.png,3,5,0.05000000074505806,1.0,700.6715087890625,['e'],1.7710118293762207,d,379.0
lattice,381,w,img/target_2.png,3,6,0.05000000074505806,1.0,702.53955078125,['w'],1.1432878971099854,d,380.0
lattice,382,b,img/target_6.png,3,7,0.05000000074505806,1.0,703.7886352539062,['b'],1.1650309562683105,d,381.0
lattice,383,o,img/target_9.png,3,9,0.05000000074505806,1.0,705.0564575195312,['o'],1.2503950595855713,d,382.0
lattice,384,r,img/target_4.png,3,8,0.05000000074505806,1.0,706.406494140625,['r'],1.4602460861206055,d,383.0
lattice,385,o,img/target_9.png,3,9,0.05000000074505806,1.0,707.9737548828125,['o'],1.1403899192810059,d,384.0
lattice,386,v,img/target_5.png,3,1,0.05000000074505806,1.0,709.2069091796875,['v'],0.9398391246795654,d,385.0
lattice,387,o,img/target_9.png,3,9,0.05000000074505806,1.0,710.2403564453125,['o'],0.8182129859924316,d,386.0
lattice,388,p,img/target_10.png,3,0,0.05000000074505806,1.0,711.1568603515625,['p'],0.8125848770141602,d,387.0
lattice,389,r,img/target_4.png,3,8,0.05000000074505806,1.0,712.0726928710938,['r'],2.04089093208313,d,388.0
lattice,390,p,img/target_10.png,3,0,0.05000000074505806,1.0,714.2062377929688,['p'],1.0521728992462158,d,389.0
lattice,391,r,img/target_4.png,3,8,0.05000000074505806,1.0,715.3565063476562,['r'],1.9336979389190674,d,390.0
lattice,392,p,img/target_10.png,3,0,0.05000000074505806,1.0,717.3910522460938,['p'],1.0913848876953125,d,391.0
lattice,393,r,img/target_4.png,3,8,0.05000000074505806,1.0,718.58984375,['r'],2.2595200538635254,d,392.0
lattice,394,w,img/target_2.png,3,6,0.05000000074505806,1.0,720.9405517578125,['w'],1.1733710765838623,d,393.0
lattice,395,r,img/target_4.png,3,8,0.05000000074505806,1.0,722.2079467773438,['r'],1.1132190227508545,d,394.0
lattice,396,b,img/target_6.png,3,7,0.05000000074505806,1.0,723.4248657226562,['b'],1.0572199821472168,d,395.0
lattice,397,o,img/target_9.png,3,9,0.05000000074505806,1.0,724.57470703125,['o'],1.7072551250457764,d,396.0
lattice,398,p,img/target_10.png,3,0,0.05000000074505806,1.0,726.3751220703125,['p'],0.6019229888916016,d,397.0
lattice,399,u,img/target_7.png,3,2,0.05000000074505806,1.0,727.0751342773438,['u'],1.911087989807129,d,398.0
lattice,400,q,img/target_1.png,3,3,0.05000000074505806,1.0,729.0919189453125,['q'],1.046220064163208,d,399.0
lattice,401,v,img/target_5.png,3,1,0.05000000074505806,1.0,730.2420043945312,['v'],1.023833990097046,d,400.0
lattice,402,p,img/target_10.png,3,0,0.05000000074505806,1.0,731.3585815429688,['p'],1.0503041744232178,d,401.0
lattice,403,o,img/target_9.png,3,9,0.05000000074505806,1.0,732.5089111328125,['o'],0.5728280544281006,d,402.0
lattice,404,r,img/target_4.png,3,8,0.05000000074505806,1.0,733.1762084960938,['r'],2.376499891281128,d,403.0
lattice,405,o,img/target_9.png,3,9,0.05000000074505806,1.0,735.6424560546875,['o'],1.1583878993988037,d,404.0
lattice,406,b,img/target_6.png,3,7,0.05000000074505806,1.0,736.8925170898438,['b'],1.0368940830230713,d,405.0
lattice,407,r,img/target_4.png,3,8,0.05000000074505806,1.0,738.0263671875,['r'],1.9902279376983643,d,406.0
lattice,408,w,img/target_2.png,3,6,0.05000000074505806,1.0,740.1085815429688,['w'],1.0838279724121094,d,407.0
lattice,409,i,img/target_8.png,3,4,0.05000000074505806,1.0,741.2926025390625,['i'],1.7644422054290771,d,408.0
lattice,410,q,img/target_1.png,3,3,0.05000000074505806,1.0,743.161376953125,['q'],1.039639949798584,d,409.0
lattice,411,v,img/target_5.png,3,1,0.05000000074505806,1.0,744.2970581054688,['v'],0.8804359436035156,d,410.0
lattice,412,o,img/target_9.png,3,9,0.05000000074505806,1.0,745.2767944335938,['o'],1.2035038471221924,d,411.0
lattice,413,b,img/target_6.png,3,7,0.05000000074505806,1.0,746.5762329101562,['b'],1.439924955368042,d,412.0
lattice,414,e,img/target_3.png,3,5,0.05000000074505806,1.0,748.1106567382812,['e'],1.986579179763794,d,413.0
lattice,415,i,img/target_8.png,3,4,0.05000000074505806,1.0,750.1929931640625,['i'],1.775048017501831,d,414.0
lattice,416,q,img/target_1.png,3,3,0.05000000074505806,1.0,752.060302734375,['q'],2.01289701461792,d,415.0
lattice,417,u,img/target_7.png,3,2,0.05000000074505806,1.0,754.2252807617188,['u'],1.343775987625122,d,416.0
lattice,418,i,img/target_8.png,3,4,0.05000000074505806,1.0,755.6776733398438,['i'],0.7154560089111328,d,417.0
lattice,419,w,img/target_2.png,3,6,0.05000000074505806,1.0,756.4939575195312,['w'],0.9859070777893066,d,418.0
lattice,420,e,img/target_3.png,3,5,0.05000000074505806,1.0,757.5780029296875,['e'],0.7591030597686768,d,419.0
lattice,421,i,img/target_8.png,3,4,0.05000000074505806,1.0,758.4449462890625,['i'],2.171581983566284,d,420.0
lattice,422,q,img/target_1.png,3,3,0.05000000074505806,1.0,760.711181640625,['q'],0.9936649799346924,d,421.0
lattice,423,u,img/target_7.png,3,2,0.05000000074505806,1.0,761.8119506835938,['u'],1.1076109409332275,d,422.0
lattice,424,v,img/target_5.png,3,1,0.05000000074505806,1.0,763.0113525390625,['v'],0.9402740001678467,d,423.0
lattice,425,u,img/target_7.png,3,2,0.05000000074505806,1.0,764.0438842773438,['u'],0.7717349529266357,d,424.0
lattice,426,p,img/target_10.png,3,0,0.05000000074505806,1.0,764.9119873046875,['p'],0.8556478023529053,d,425.0
lattice,427,r,img/target_4.png,3,8,0.05000000074505806,1.0,765.8663940429688,['r'],1.0940430164337158,d,426.0
lattice,428,w,img/target_2.png,3,6,0.05000000074505806,1.0,767.0669555664062,['w'],1.04475998878479,d,427.0
lattice,429,r,img/target_4.png,3,8,0.05000000074505806,1.0,768.2120361328125,['r'],1.2756400108337402,d,428.0
lattice,430,b,img/target_6.png,3,7,0.05000000074505806,1.0,769.5789184570312,['b'],1.0364739894866943,d,429.0
lattice,431,r,img/target_4.png,3,8,0.05000000074505806,1.0,770.71142578125,['r'],1.1131579875946045,d,430.0
lattice,432,w,img/target_2.png,3,6,0.05000000074505806,1.0,771.929443359375,['w'],1.1030659675598145,d,431.0
lattice,433,r,img/target_4.png,3,8,0.05000000074505806,1.0,773.1294555664062,['r'],1.1019489765167236,d,432.0
lattice,434,p,img/target_10.png,3,0,0.05000000074505806,1.0,774.3298950195312,['p'],0.9823291301727295,d,433.0
lattice,435,r,img/target_4.png,3,8,0.05000000074505806,1.0,775.4132690429688,['r'],1.0339908599853516,d,434.0
lattice,436,b,img/target_6.png,3,7,0.05000000074505806,1.0,776.5455322265625,['b'],1.4705429077148438,d,435.0
lattice,437,e,img/target_3.png,3,5,0.05000000074505806,1.0,778.1134643554688,['e'],1.7101800441741943,d,436.0
lattice,438,b,img/target_6.png,3,7,0.05000000074505806,1.0,779.9295043945312,['b'],1.1423299312591553,d,437.0
lattice,439,o,img/target_9.png,3,9,0.05000000074505806,1.0,781.1633911132812,['o'],1.0276567935943604,d,438.0
lattice,440,v,img/target_5.png,3,1,0.05000000074505806,1.0,782.2808837890625,['v'],2.319443941116333,d,439.0
lattice,441,p,img/target_10.png,3,0,0.05000000074505806,1.0,784.6969604492188,['p'],1.0865528583526611,d,440.0
lattice,442,o,img/target_9.png,3,9,0.05000000074505806,1.0,785.8807373046875,['o'],0.7990031242370605,d,441.0
lattice,443,v,img/target_5.png,3,1,0.05000000074505806,1.0,786.78076171875,['v'],1.1868090629577637,d,442.0
lattice,444,o,img/target_9.png,3,9,0.05000000074505806,1.0,788.0643920898438,['o'],0.9591770172119141,d,443.0
lattice,445,v,img/target_5.png,3,1,0.05000000074505806,1.0,789.1300048828125,['v'],0.6288719177246094,d,444.0
lattice,446,o,img/target_9.png,3,9,0.05000000074505806,1.0,789.8656616210938,['o'],0.75730299949646,d,445.0
lattice,447,p,img/target_10.png,3,0,0.05000000074505806,1.0,790.7142944335938,['p'],0.6692330837249756,d,446.0
lattice,448,r,img/target_4.png,3,8,0.05000000074505806,1.0,791.4811401367188,['r'],1.1336040496826172,d,447.0
lattice,449,b,img/target_6.png,3,7,0.05000000074505806,1.0,792.7149047851562,['b'],1.0368659496307373,d,448.0
lattice,450,e,img/target_3.png,3,5,0.05000000074505806,1.0,793.8487548828125,['e'],1.3346948623657227,d,449.0
lattice,451,i,img/target_8.png,3,4,0.05000000074505806,1.0,795.2841796875,['i'],1.7073931694030762,d,450.0
lattice,452,q,img/target_1.png,3,3,0.05000000074505806,1.0,797.097900390625,['q'],1.3655109405517578,d,451.0
lattice,453,i,img/target_8.png,3,4,0.05000000074505806,1.0,798.564208984375,['i'],2.0743558406829834,d,452.0
lattice,454,e,img/target_3.png,3,5,0.05000000074505806,1.0,800.7319946289062,['e'],1.4343299865722656,d,453.0
lattice,455,b,img/target_6.png,3,7,0.05000000074505806,1.0,802.2657470703125,['b'],1.1005980968475342,d,454.0
lattice,456,e,img/target_3.png,3,5,0.05000000074505806,1.0,803.4693603515625,['e'],1.9210319519042969,d,455.0
lattice,457,w,img/target_2.png,3,6,0.05000000074505806,1.0,805.4818115234375,['w'],1.0444140434265137,d,456.0
lattice,458,b,img/target_6.png,3,7,0.05000000074505806,1.0,806.6343994140625,['b'],1.0840098857879639,d,457.0
lattice,459,r,img/target_4.png,3,8,0.05000000074505806,1.0,807.8155517578125,['r'],1.030622959136963,d,458.0
lattice,460,w,img/target_2.png,3,6,0.05000000074505806,1.0,808.948486328125,['w'],1.1616568565368652,d,459.0
lattice,461,e,img/target_3.png,3,5,0.05000000074505806,1.0,810.215087890625,['e'],0.7598679065704346,d,460.0
lattice,462,b,img/target_6.png,3,7,0.05000000074505806,1.0,811.0819702148438,['b'],1.436889886856079,d,461.0
lattice,463,e,img/target_3.png,3,5,0.05000000074505806,0.0,812.6166381835938,['e'],1.9337780475616455,d,462.0
lattice,464,i,img/target_8.png,3,4,0.05000000074505806,1.0,814.6339111328125,['i'],1.9080150127410889,d,463.0
lattice,465,u,img/target_7.png,3,2,0.05000000074505806,1.0,816.6334838867188,['u'],0.5482289791107178,d,464.0
lattice,466,q,img/target_1.png,3,3,0.05000000074505806,1.0,817.2826538085938,['q'],1.3404009342193604,d,465.0
lattice,467,e,img/target_3.png,3,5,0.05000000074505806,1.0,818.7166748046875,['e'],0.9928228855133057,d,466.0
lattice,468,q,img/target_1.png,3,3,0.05000000074505806,1.0,819.800537109375,['q'],0.957068920135498,d,467.0
lattice,469,e,img/target_3.png,3,5,0.05000000074505806,1.0,820.8501586914062,['e'],1.0113499164581299,d,468.0
lattice,470,w,img/target_2.png,3,6,0.05000000074505806,1.0,821.9503173828125,['w'],0.8324902057647705,d,469.0
lattice,471,i,img/target_8.png,3,4,0.05000000074505806,1.0,822.8838500976562,['i'],1.730545997619629,d,470.0
lattice,472,u,img/target_7.png,3,2,0.05000000074505806,1.0,824.716552734375,['u'],0.5857839584350586,d,471.0
lattice,473,p,img/target_10.png,3,0,0.05000000074505806,1.0,825.4000244140625,['p'],0.8612511157989502,d,472.0
lattice,474,r,img/target_4.png,3,8,0.05000000074505806,1.0,826.3509521484375,['r'],1.0313191413879395,d,473.0
lattice,475,w,img/target_2.png,3,6,0.05000000074505806,1.0,827.4840698242188,['w'],1.194127082824707,d,474.0
lattice,476,e,img/target_3.png,3,5,0.05000000074505806,1.0,828.7847290039062,['e'],0.8608269691467285,d,475.0
lattice,477,i,img/target_8.png,3,4,0.05000000074505806,1.0,829.7517700195312,['i'],1.8067069053649902,d,476.0
lattice,478,u,img/target_7.png,3,2,0.05000000074505806,1.0,831.6510009765625,['u'],0.5628030300140381,d,477.0
lattice,479,i,img/target_8.png,3,4,0.05000000074505806,1.0,832.318603515625,['i'],0.5026171207427979,d,478.0
lattice,480,e,img/target_3.png,3,5,0.05000000074505806,1.0,832.9186401367188,['e'],1.166593074798584,d,479.0
lattice,481,b,img/target_6.png,3,7,0.05000000074505806,1.0,834.1887817382812,['b'],0.9923748970031738,d,480.0
lattice,482,w,img/target_2.png,3,6,0.05000000074505806,1.0,835.2857666015625,['w'],0.9841420650482178,d,481.0
lattice,483,e,img/target_3.png,3,5,0.05000000074505806,1.0,836.3678588867188,['e'],0.8061459064483643,d,482.0
lattice,484,b,img/target_6.png,3,7,0.05000000074505806,1.0,837.2686767578125,['b'],1.176321029663086,d,483.0
lattice,485,r,img/target_4.png,3,8,0.05000000074505806,1.0,838.534912109375,['r'],1.0461218357086182,d,484.0
lattice,486,w,img/target_2.png,3,6,0.05000000074505806,1.0,839.6847534179688,['w'],1.0172169208526611,d,485.0
lattice,487,b,img/target_6.png,3,7,0.05000000074505806,1.0,840.8017578125,['b'],1.1557650566101074,d,486.0
lattice,488,o,img/target_9.png,3,9,0.05000000074505806,1.0,842.0538940429688,['o'],1.8552019596099854,d,487.0
lattice,489,v,img/target_5.png,3,1,0.05000000074505806,1.0,844.00390625,['v'],1.1299219131469727,d,488.0
lattice,490,o,img/target_9.png,3,9,0.05000000074505806,1.0,845.2362060546875,['o'],1.641347885131836,d,489.0
lattice,491,v,img/target_5.png,3,1,0.05000000074505806,1.0,846.969482421875,['v'],0.9003660678863525,d,490.0
lattice,492,o,img/target_9.png,3,9,0.05000000074505806,1.0,847.9688110351562,['o'],0.636002779006958,d,491.0
lattice,493,v,img/target_5.png,3,1,0.05000000074505806,1.0,848.703369140625,['v'],0.557427167892456,d,492.0
lattice,494,p,img/target_10.png,3,0,0.05000000074505806,1.0,849.353271484375,['p'],0.5636880397796631,d,493.0
lattice,495,v,img/target_5.png,3,1,0.05000000074505806,1.0,850.0192260742188,['v'],0.6822459697723389,d,494.0
lattice,496,q,img/target_1.png,3,3,0.05000000074505806,1.0,850.8049926757812,['q'],0.9435460567474365,d,495.0
lattice,497,u,img/target_7.png,3,2,0.05000000074505806,1.0,851.852783203125,['u'],1.2968368530273438,d,496.0
lattice,498,p,img/target_10.png,3,0,0.05000000074505806,1.0,853.2538452148438,['p'],0.759058952331543,d,497.0
lattice,499,r,img/target_4.png,3,8,0.05000000074505806,1.0,854.1029052734375,['r'],1.0465009212493896,d,498.0
lattice,500,p,img/target_10.png,3,0,0.05000000074505806,1.0,855.2540283203125,['p'],0.8792300224304199,d,499.0
lattice,501,r,img/target_4.png,3,8,0.05000000074505806,1.0,856.239990234375,['r'],0.9494099617004395,d,500.0
lattice,502,b,img/target_6.png,3,7,0.05000000074505806,1.0,857.2868041992188,['b'],1.1344780921936035,d,501.0
lattice,503,w,img/target_2.png,3,6,0.05000000074505806,1.0,858.5211791992188,['w'],0.9392139911651611,d,502.0
lattice,504,b,img/target_6.png,3,7,0.05000000074505806,1.0,859.5543212890625,['b'],1.2346570491790771,d,503.0
lattice,505,w,img/target_2.png,3,6,0.05000000074505806,1.0,860.8878173828125,['w'],0.60542893409729,d,504.0
lattice,506,b,img/target_6.png,3,7,0.05000000074505806,1.0,861.59033203125,['b'],0.6619100570678711,d,505.0
lattice,507,o,img/target_9.png,3,9,0.05000000074505806,1.0,862.3583374023438,['o'],1.2618072032928467,d,506.0
lattice,508,r,img/target_4.png,3,8,0.05000000074505806,1.0,863.7218017578125,['r'],1.1071858406066895,d,507.0
lattice,509,o,img/target_9.png,3,9,0.05000000074505806,1.0,864.9205322265625,['o'],1.0684700012207031,d,508.0
lattice,510,b,img/target_6.png,3,7,0.05000000074505806,1.0,866.0875244140625,['b'],1.7645080089569092,d,509.0
lattice,511,w,img/target_2.png,3,6,0.05000000074505806,1.0,867.9544067382812,['w'],1.0656049251556396,d,510.0
lattice,512,e,img/target_3.png,3,5,0.05000000074505806,1.0,869.1207275390625,['e'],0.8122830390930176,d,511.0
lattice,513,b,img/target_6.png,3,7,0.05000000074505806,1.0,870.0379028320312,['b'],1.0700018405914307,d,512.0
lattice,514,e,img/target_3.png,3,5,0.05000000074505806,0.0,871.2046508789062,['e'],1.7200829982757568,d,513.0
lattice,515,b,img/target_6.png,3,7,0.05000000074505806,1.0,873.0048828125,['b'],1.1910498142242432,d,514.0
lattice,516,o,img/target_9.png,3,9,0.05000000074505806,1.0,874.28857421875,['o'],1.1321239471435547,d,515.0
lattice,517,v,img/target_5.png,3,1,0.05000000074505806,1.0,875.5223999023438,['v'],1.0414950847625732,d,516.0
lattice,518,u,img/target_7.png,3,2,0.05000000074505806,1.0,876.6561279296875,['u'],1.3244211673736572,d,517.0
lattice,519,v,img/target_5.png,3,1,0.05000000074505806,1.0,878.0887451171875,['v'],0.8677198886871338,d,518.0
lattice,520,p,img/target_10.png,3,0,0.05000000074505806,1.0,879.0555419921875,['p'],0.9890279769897461,d,519.0
lattice,521,o,img/target_9.png,3,9,0.05000000074505806,1.0,880.139404296875,['o'],0.576927900314331,d,520.0
lattice,522,b,img/target_6.png,3,7,0.05000000074505806,1.0,880.822021484375,['b'],1.030461072921753,d,521.0
lattice,523,e,img/target_3.png,3,5,0.05000000074505806,1.0,881.9566650390625,['e'],1.0475709438323975,d,522.0
lattice,524,b,img/target_6.png,3,7,0.05000000074505806,1.0,883.1065063476562,['b'],1.0897860527038574,d,523.0
lattice,525,w,img/target_2.png,3,6,0.05000000074505806,1.0,884.2900390625,['w'],1.2334680557250977,d,524.0
lattice,526,r,img/target_4.png,3,8,0.05000000074505806,1.0,885.6223754882812,['r'],1.0370278358459473,d,525.0
lattice,527,p,img/target_10.png,3,0,0.05000000074505806,1.0,886.7562255859375,['p'],1.1596589088439941,d,526.0
lattice,528,u,img/target_7.png,3,2,0.05000000074505806,1.0,888.0066528320312,['u'],1.077699899673462,d,527.0
lattice,529,p,img/target_10.png,3,0,0.05000000074505806,1.0,889.1905517578125,['p'],0.836663007736206,d,528.0
lattice,530,r,img/target_4.png,3,8,0.05000000074505806,1.0,890.122802734375,['r'],1.249208927154541,d,529.0
lattice,531,o,img/target_9.png,3,9,0.05000000074505806,1.0,891.4736938476562,['o'],1.2495651245117188,d,530.0
lattice,532,b,img/target_6.png,3,7,0.05000000074505806,1.0,892.8281860351562,['b'],1.0798051357269287,d,531.0
lattice,533,o,img/target_9.png,3,9,0.05000000074505806,1.0,894.0079345703125,['o'],1.25101900100708,d,532.0
lattice,534,v,img/target_5.png,3,1,0.05000000074505806,1.0,895.35791015625,['v'],1.0132009983062744,d,533.0
lattice,535,p,img/target_10.png,3,0,0.05000000074505806,1.0,896.4745483398438,['p'],0.9603941440582275,d,534.0
lattice,536,o,img/target_9.png,3,9,0.05000000074505806,1.0,897.5245361328125,['o'],0.6311209201812744,d,535.0
lattice,537,r,img/target_4.png,3,8,0.05000000074505806,1.0,898.27392578125,['r'],1.041990041732788,d,536.0
lattice,538,p,img/target_10.png,3,0,0.05000000074505806,1.0,899.423828125,['p'],0.8199598789215088,d,537.0
lattice,539,v,img/target_5.png,3,1,0.05000000074505806,1.0,900.3404541015625,['v'],0.838576078414917,d,538.0
lattice,540,q,img/target_1.png,3,3,0.05000000074505806,1.0,901.2753295898438,['q'],1.0486669540405273,d,539.0
lattice,541,u,img/target_7.png,3,2,0.05000000074505806,1.0,902.4243774414062,['u'],2.8663442134857178,d,540.0
lattice,542,i,img/target_8.png,3,4,0.05000000074505806,1.0,905.3908081054688,['i'],0.9078009128570557,d,541.0
lattice,543,e,img/target_3.png,3,5,0.05000000074505806,1.0,906.39111328125,['e'],1.3244781494140625,d,542.0
lattice,544,q,img/target_1.png,3,3,0.05000000074505806,1.0,907.8087158203125,['q'],0.9138219356536865,d,543.0
lattice,545,i,img/target_8.png,3,4,0.05000000074505806,1.0,908.8291625976562,['i'],3.710416078567505,d,544.0
lattice,546,w,img/target_2.png,3,6,0.05000000074505806,1.0,912.642822265625,['w'],1.0884029865264893,d,545.0
lattice,547,i,img/target_8.png,3,4,0.05000000074505806,1.0,913.826171875,['i'],3.30432391166687,d,546.0
lattice,548,e,img/target_3.png,3,5,0.05000000074505806,1.0,917.2264404296875,['e'],1.3527429103851318,d,547.0
lattice,549,w,img/target_2.png,3,6,0.05000000074505806,1.0,918.67626953125,['w'],1.022010087966919,d,548.0
lattice,550,r,img/target_4.png,3,8,0.05000000074505806,1.0,919.79345703125,['r'],0.9366600513458252,d,549.0
lattice,551,w,img/target_2.png,3,6,0.05000000074505806,1.0,920.826904296875,['w'],1.007638931274414,d,550.0
lattice,552,r,img/target_4.png,3,8,0.05000000074505806,1.0,921.9261474609375,['r'],1.0599849224090576,d,551.0
lattice,553,w,img/target_2.png,3,6,0.05000000074505806,1.0,923.077392578125,['w'],1.1166059970855713,d,552.0
lattice,554,b,img/target_6.png,3,7,0.05000000074505806,1.0,924.2928466796875,['b'],1.0781550407409668,d,553.0
lattice,555,r,img/target_4.png,3,8,0.05000000074505806,1.0,925.4761352539062,['r'],1.1097850799560547,d,554.0
lattice,556,p,img/target_10.png,3,0,0.05000000074505806,1.0,926.67724609375,['p'],1.1739428043365479,d,555.0
lattice,557,u,img/target_7.png,3,2,0.05000000074505806,1.0,927.9437255859375,['u'],1.354090929031372,d,556.0
lattice,558,v,img/target_5.png,3,1,0.05000000074505806,1.0,929.3931274414062,['v'],0.9608268737792969,d,557.0
lattice,559,u,img/target_7.png,3,2,0.05000000074505806,1.0,930.4441528320312,['u'],1.3108301162719727,d,558.0
lattice,560,v,img/target_5.png,3,1,0.05000000074505806,1.0,931.8602905273438,['v'],0.9264860153198242,d,559.0
lattice,561,q,img/target_1.png,3,3,0.05000000074505806,1.0,932.8969116210938,['q'],1.025907039642334,d,560.0
lattice,562,u,img/target_7.png,3,2,0.05000000074505806,1.0,934.0274047851562,['u'],1.3742570877075195,d,561.0
lattice,563,p,img/target_10.png,3,0,0.05000000074505806,1.0,935.4945068359375,['p'],0.8439700603485107,d,562.0
lattice,564,u,img/target_7.png,3,2,0.05000000074505806,1.0,936.4447021484375,['u'],0.948962926864624,d,563.0
lattice,565,v,img/target_5.png,3,1,0.05000000074505806,1.0,937.4964599609375,['v'],0.9210569858551025,d,564.0
lattice,566,q,img/target_1.png,3,3,0.05000000074505806,1.0,938.51123046875,['q'],0.9633588790893555,d,565.0
lattice,567,e,img/target_3.png,3,5,0.05000000074505806,1.0,939.5785522460938,['e'],1.0149049758911133,d,566.0
lattice,568,q,img/target_1.png,3,3,0.05000000074505806,1.0,940.6942138671875,['q'],1.0831680297851562,d,567.0
lattice,569,u,img/target_7.png,3,2,0.05000000074505806,1.0,941.8817138671875,['u'],1.3198060989379883,d,568.0
lattice,570,v,img/target_5.png,3,1,0.05000000074505806,1.0,943.2958984375,['v'],1.0174560546875,d,569.0
lattice,571,p,img/target_10.png,3,0,0.05000000074505806,1.0,944.4112548828125,['p'],0.8939049243927002,d,570.0
lattice,572,u,img/target_7.png,3,2,0.05000000074505806,1.0,945.3952026367188,['u'],0.9979548454284668,d,571.0
lattice,573,p,img/target_10.png,3,0,0.05000000074505806,1.0,946.4949340820312,['p'],0.8183951377868652,d,572.0
lattice,574,o,img/target_9.png,3,9,0.05000000074505806,1.0,947.41162109375,['o'],0.8775599002838135,d,573.0
lattice,575,p,img/target_10.png,3,0,0.05000000074505806,1.0,948.3793334960938,['p'],0.6541740894317627,d,574.0
lattice,576,r,img/target_4.png,3,8,0.05000000074505806,1.0,949.1295776367188,['r'],1.0722429752349854,d,575.0
lattice,577,b,img/target_6.png,3,7,0.05000000074505806,1.0,950.2952270507812,['b'],1.0739119052886963,d,576.0
lattice,578,o,img/target_9.png,3,9,0.05000000074505806,1.0,951.4657592773438,['o'],1.839388132095337,d,577.0
lattice,579,b,img/target_6.png,3,7,0.05000000074505806,1.0,953.3999633789062,['b'],1.209895133972168,d,578.0
lattice,580,e,img/target_3.png,3,5,0.05000000074505806,1.0,954.733154296875,['e'],2.203748941421509,d,579.0
lattice,581,w,img/target_2.png,3,6,0.05000000074505806,1.0,957.0302734375,['w'],0.6354548931121826,d,580.0
lattice,582,r,img/target_4.png,3,8,0.05000000074505806,1.0,957.7626953125,['r'],0.8549752235412598,d,581.0
lattice,583,p,img/target_10.png,3,0,0.05000000074505806,1.0,958.712646484375,['p'],1.0164129734039307,d,582.0
lattice,584,r,img/target_4.png,3,8,0.05000000074505806,1.0,959.8295288085938,['r'],0.9392669200897217,d,583.0
lattice,585,o,img/target_9.png,3,9,0.05000000074505806,1.0,960.86669921875,['o'],1.3586418628692627,d,584.0
lattice,586,v,img/target_5.png,3,1,0.05000000074505806,1.0,962.3309326171875,['v'],0.9269580841064453,d,585.0
lattice,587,p,img/target_10.png,3,0,0.05000000074505806,1.0,963.3672485351562,['p'],0.8104889392852783,d,586.0
lattice,588,r,img/target_4.png,3,8,0.05000000074505806,1.0,964.2809448242188,['r'],1.024566888809204,d,587.0
lattice,589,w,img/target_2.png,3,6,0.05000000074505806,1.0,965.4176635742188,['w'],0.94411301612854,d,588.0
lattice,590,b,img/target_6.png,3,7,0.05000000074505806,1.0,966.4639892578125,['b'],1.0975279808044434,d,589.0
lattice,591,e,img/target_3.png,3,5,0.05000000074505806,1.0,967.6650390625,['e'],0.9760680198669434,d,590.0
lattice,592,b,img/target_6.png,3,7,0.05000000074505806,1.0,968.7474365234375,['b'],1.341500997543335,d,591.0
lattice,593,r,img/target_4.png,3,8,0.05000000074505806,1.0,970.180908203125,['r'],1.1555969715118408,d,592.0
lattice,594,p,img/target_10.png,3,0,0.05000000074505806,1.0,971.4312133789062,['p'],0.9614009857177734,d,593.0
lattice,595,u,img/target_7.png,3,2,0.05000000074505806,1.0,972.4810180664062,['u'],2.8160269260406494,d,594.0
lattice,596,p,img/target_10.png,3,0,0.05000000074505806,1.0,975.3977661132812,['p'],0.9384040832519531,d,595.0
lattice,597,r,img/target_4.png,3,8,0.05000000074505806,1.0,976.4313354492188,['r'],1.3379778861999512,d,596.0
lattice,598,w,img/target_2.png,3,6,0.05000000074505806,1.0,977.8648681640625,['w'],0.912315845489502,d,597.0
lattice,599,r,img/target_4.png,3,8,0.05000000074505806,1.0,978.884765625,['r'],1.0838868618011475,d,598.0
lattice,600,b,img/target_6.png,3,7,0.05000000074505806,1.0,980.064697265625,['b'],1.0073158740997314,d,599.0
lattice,601,o,img/target_9.png,3,9,0.05000000074505806,0.0,981.165283203125,['o'],2.387712001800537,d,600.0
lattice,602,p,img/target_10.png,3,0,0.05000000074505806,1.0,983.6320190429688,['p'],0.5678870677947998,d,601.0
lattice,603,o,img/target_9.png,3,9,0.05000000074505806,1.0,984.2991333007812,['o'],0.693228006362915,d,602.0
lattice,604,p,img/target_10.png,3,0,0.05000000074505806,1.0,985.0826416015625,['p'],0.6373350620269775,d,603.0
lattice,605,o,img/target_9.png,3,9,0.05000000074505806,1.0,985.815185546875,['o'],0.6166739463806152,d,604.0
lattice,606,b,img/target_6.png,3,7,0.05000000074505806,1.0,986.532958984375,['b'],0.9880590438842773,d,605.0
lattice,607,e,img/target_3.png,3,5,0.05000000074505806,1.0,987.6166381835938,['e'],1.8550219535827637,d,606.0
lattice,608,q,img/target_1.png,3,3,0.05000000074505806,1.0,989.5661010742188,['q'],1.0666310787200928,d,607.0
lattice,609,e,img/target_3.png,3,5,0.05000000074505806,1.0,990.7334594726562,['e'],0.8022239208221436,d,608.0
lattice,610,q,img/target_1.png,3,3,0.05000000074505806,1.0,991.634765625,['q'],0.5097711086273193,d,609.0
lattice,611,i,img/target_8.png,3,4,0.05000000074505806,1.0,992.2507934570312,['i'],4.524786949157715,d,610.0
lattice,612,u,img/target_7.png,3,2,0.05000000074505806,1.0,996.8673706054688,['u'],0.5009989738464355,d,611.0
lattice,613,q,img/target_1.png,3,3,0.05000000074505806,1.0,997.4664916992188,['q'],0.9970929622650146,d,612.0
lattice,614,e,img/target_3.png,3,5,0.05000000074505806,1.0,998.5693969726562,['e'],0.9911751747131348,d,613.0
lattice,615,q,img/target_1.png,3,3,0.05000000074505806,1.0,999.6500854492188,['q'],0.6774251461029053,d,614.0
lattice,616,u,img/target_7.png,3,2,0.05000000074505806,1.0,1000.4171142578125,['u'],1.3661198616027832,d,615.0
lattice,617,q,img/target_1.png,3,3,0.05000000074505806,1.0,1001.8837280273438,['q'],0.5717570781707764,d,616.0
lattice,618,v,img/target_5.png,3,1,0.05000000074505806,1.0,1002.5511474609375,['v'],1.0089619159698486,d,617.0
lattice,619,u,img/target_7.png,3,2,0.05000000074505806,1.0,1003.6682739257812,['u'],1.5069329738616943,d,618.0
lattice,620,v,img/target_5.png,3,1,0.05000000074505806,1.0,1005.268310546875,['v'],1.5389208793640137,d,619.0
lattice,621,u,img/target_7.png,3,2,0.05000000074505806,1.0,1006.9013061523438,['u'],1.0985770225524902,d,620.0
lattice,622,i,img/target_8.png,3,4,0.05000000074505806,1.0,1008.1008911132812,['i'],0.8824307918548584,d,621.0
lattice,623,w,img/target_2.png,3,6,0.05000000074505806,1.0,1009.0853881835938,['w'],0.9298150539398193,d,622.0
lattice,624,e,img/target_3.png,3,5,0.05000000074505806,1.0,1010.1179809570312,['e'],0.7609899044036865,d,623.0
lattice,625,i,img/target_8.png,3,4,0.05000000074505806,1.0,1010.9676513671875,['i'],1.856398105621338,d,624.0
lattice,626,u,img/target_7.png,3,2,0.05000000074505806,1.0,1012.9190063476562,['u'],0.616894006729126,d,625.0
lattice,627,q,img/target_1.png,3,3,0.05000000074505806,1.0,1013.6353149414062,['q'],0.8518271446228027,d,626.0
lattice,628,i,img/target_8.png,3,4,0.05000000074505806,0.0,1014.5848999023438,['i'],1.8228390216827393,d,627.0
lattice,629,e,img/target_3.png,3,5,0.05000000074505806,1.0,1016.4849243164062,['e'],2.2578728199005127,d,628.0
lattice,630,i,img/target_8.png,3,4,0.05000000074505806,1.0,1018.83642578125,['i'],1.7942180633544922,d,629.0
lattice,631,q,img/target_1.png,3,3,0.05000000074505806,1.0,1020.7352905273438,['q'],1.0561580657958984,d,630.0
lattice,632,u,img/target_7.png,3,2,0.05000000074505806,1.0,1021.8863525390625,['u'],0.8802509307861328,d,631.0
lattice,633,p,img/target_10.png,3,0,0.05000000074505806,1.0,1022.8698120117188,['p'],1.2809278964996338,d,632.0
lattice,634,r,img/target_4.png,3,8,0.05000000074505806,0.0,1024.25341796875,['r'],1.880863904953003,d,633.0
lattice,635,o,img/target_9.png,3,9,0.05000000074505806,1.0,1026.21923828125,['o'],1.659168004989624,d,634.0
lattice,636,r,img/target_4.png,3,8,0.05000000074505806,1.0,1027.970458984375,['r'],1.1080968379974365,d,635.0
lattice,637,b,img/target_6.png,3,7,0.05000000074505806,1.0,1029.1695556640625,['b'],1.1969501972198486,d,636.0
lattice,638,w,img/target_2.png,3,6,0.05000000074505806,1.0,1030.469482421875,['w'],1.226081132888794,d,637.0
lattice,639,e,img/target_3.png,3,5,0.05000000074505806,1.0,1031.80419921875,['e'],1.2512221336364746,d,638.0
lattice,640,b,img/target_6.png,3,7,0.05000000074505806,1.0,1033.154296875,['b'],1.0041680335998535,d,639.0
lattice,641,o,img/target_9.png,3,9,0.05000000074505806,1.0,1034.2545166015625,['o'],1.1438300609588623,d,640.0
lattice,642,b,img/target_6.png,3,7,0.05000000074505806,1.0,1035.4879150390625,['b'],1.254485845565796,d,641.0
lattice,643,e,img/target_3.png,3,5,0.05000000074505806,1.0,1036.8380126953125,['e'],2.2566351890563965,d,642.0
lattice,644,i,img/target_8.png,3,4,0.05000000074505806,0.0,1039.18798828125,['i'],2.1068859100341797,d,643.0
lattice,645,u,img/target_7.png,3,2,0.05000000074505806,1.0,1041.37060546875,['u'],0.5238568782806396,d,644.0
lattice,646,p,img/target_10.png,3,0,0.05000000074505806,1.0,1041.9884033203125,['p'],0.881439208984375,d,645.0
lattice,647,v,img/target_5.png,3,1,0.05000000074505806,1.0,1042.9716796875,['v'],1.1382689476013184,d,646.0
lattice,648,p,img/target_10.png,3,0,0.05000000074505806,1.0,1044.2054443359375,['p'],1.2163810729980469,d,647.0
lattice,649,o,img/target_9.png,3,9,0.05000000074505806,1.0,1045.5242919921875,['o'],0.7697739601135254,d,648.0
lattice,650,r,img/target_4.png,3,8,0.05000000074505806,0.0,1046.388916015625,['r'],2.0808582305908203,d,649.0
lattice,651,w,img/target_2.png,3,6,0.05000000074505806,1.0,1048.5546875,['w'],1.2200729846954346,d,650.0
lattice,652,e,img/target_3.png,3,5,0.05000000074505806,1.0,1049.871826171875,['e'],0.8857438564300537,d,651.0
lattice,653,b,img/target_6.png,3,7,0.05000000074505806,1.0,1050.8555908203125,['b'],0.9749870300292969,d,652.0
lattice,654,e,img/target_3.png,3,5,0.05000000074505806,1.0,1051.938232421875,['e'],1.0513720512390137,d,653.0
lattice,655,b,img/target_6.png,3,7,0.05000000074505806,1.0,1053.088623046875,['b'],0.9251611232757568,d,654.0
lattice,656,r,img/target_4.png,3,8,0.05000000074505806,1.0,1054.1064453125,['r'],0.9401049613952637,d,655.0
lattice,657,p,img/target_10.png,3,0,0.05000000074505806,1.0,1055.1387939453125,['p'],0.9545509815216064,d,656.0
lattice,658,u,img/target_7.png,3,2,0.05000000074505806,1.0,1056.1885986328125,['u'],1.017874002456665,d,657.0
lattice,659,p,img/target_10.png,3,0,0.05000000074505806,1.0,1057.305419921875,['p'],1.0769340991973877,d,658.0
lattice,660,r,img/target_4.png,3,8,0.05000000074505806,1.0,1058.4898681640625,['r'],2.0597150325775146,d,659.0
lattice,661,w,img/target_2.png,3,6,0.05000000074505806,1.0,1060.6395263671875,['w'],0.9988470077514648,d,660.0
lattice,662,b,img/target_6.png,3,7,0.05000000074505806,1.0,1061.740478515625,['b'],0.9138009548187256,d,661.0
lattice,663,w,img/target_2.png,3,6,0.05000000074505806,1.0,1062.7568359375,['w'],1.0885908603668213,d,662.0
lattice,664,i,img/target_8.png,3,4,0.05000000074505806,1.0,1063.939453125,['i'],2.7068119049072266,d,663.0
lattice,665,w,img/target_2.png,3,6,0.05000000074505806,1.0,1066.740234375,['w'],0.8893799781799316,d,664.0
lattice,666,i,img/target_8.png,3,4,0.05000000074505806,1.0,1067.72314453125,['i'],0.7630128860473633,d,665.0
lattice,667,u,img/target_7.png,3,2,0.05000000074505806,1.0,1068.5947265625,['u'],0.6743650436401367,d,666.0
lattice,668,v,img/target_5.png,3,1,0.05000000074505806,1.0,1069.373779296875,['v'],1.0553069114685059,d,667.0
lattice,669,q,img/target_1.png,3,3,0.05000000074505806,1.0,1070.5238037109375,['q'],0.809319019317627,d,668.0
lattice,670,u,img/target_7.png,3,2,0.05000000074505806,1.0,1071.42431640625,['u'],0.9566450119018555,d,669.0
lattice,671,v,img/target_5.png,3,1,0.05000000074505806,1.0,1072.4737548828125,['v'],0.9312200546264648,d,670.0
lattice,672,p,img/target_10.png,3,0,0.05000000074505806,1.0,1073.5084228515625,['p'],1.073603868484497,d,671.0
lattice,673,o,img/target_9.png,3,9,0.05000000074505806,1.0,1074.674560546875,['o'],0.4590730667114258,d,672.0
lattice,674,b,img/target_6.png,3,7,0.05000000074505806,1.0,1075.224853515625,['b'],1.0210139751434326,d,673.0
lattice,675,e,img/target_3.png,3,5,0.05000000074505806,1.0,1076.341796875,['e'],1.0629041194915771,d,674.0
lattice,676,q,img/target_1.png,3,3,0.05000000074505806,1.0,1077.5074462890625,['q'],0.9378330707550049,d,675.0
lattice,677,v,img/target_5.png,3,1,0.05000000074505806,1.0,1078.5419921875,['v'],1.0626800060272217,d,676.0
lattice,678,p,img/target_10.png,3,0,0.05000000074505806,1.0,1079.70751953125,['p'],0.9451770782470703,d,677.0
lattice,679,o,img/target_9.png,3,9,0.05000000074505806,1.0,1080.7415771484375,['o'],0.6312210559844971,d,678.0
lattice,680,r,img/target_4.png,3,8,0.05000000074505806,1.0,1081.474365234375,['r'],1.058210849761963,d,679.0
lattice,681,p,img/target_10.png,3,0,0.05000000074505806,1.0,1082.6259765625,['p'],1.0106568336486816,d,680.0
lattice,682,o,img/target_9.png,3,9,0.05000000074505806,1.0,1083.74267578125,['o'],0.5336499214172363,d,681.0
lattice,683,p,img/target_10.png,3,0,0.05000000074505806,1.0,1084.3763427734375,['p'],0.6043009757995605,d,682.0
lattice,684,o,img/target_9.png,3,9,0.05000000074505806,1.0,1085.07470703125,['o'],0.5375239849090576,d,683.0
lattice,685,r,img/target_4.png,3,8,0.05000000074505806,1.0,1085.7081298828125,['r'],0.9442470073699951,d,684.0
lattice,686,o,img/target_9.png,3,9,0.05000000074505806,1.0,1086.742431640625,['o'],1.0618939399719238,d,685.0
lattice,687,b,img/target_6.png,3,7,0.05000000074505806,1.0,1087.9083251953125,['b'],0.8972969055175781,d,686.0
lattice,688,w,img/target_2.png,3,6,0.05000000074505806,1.0,1088.909912109375,['w'],1.007308006286621,d,687.0
lattice,689,e,img/target_3.png,3,5,0.05000000074505806,1.0,1090.0096435546875,['e'],0.7236471176147461,d,688.0
lattice,690,w,img/target_2.png,3,6,0.05000000074505806,1.0,1090.8255615234375,['w'],0.5866098403930664,d,689.0
lattice,691,r,img/target_4.png,3,8,0.05000000074505806,1.0,1091.5087890625,['r'],1.0158698558807373,d,690.0
lattice,692,o,img/target_9.png,3,9,0.05000000074505806,0.0,1092.62646484375,['o'],2.2099368572235107,d,691.0
lattice,693,b,img/target_6.png,3,7,0.05000000074505806,1.0,1094.9097900390625,['b'],0.966500997543335,d,692.0
lattice,694,r,img/target_4.png,3,8,0.05000000074505806,1.0,1095.97705078125,['r'],1.0749530792236328,d,693.0
lattice,695,p,img/target_10.png,3,0,0.05000000074505806,1.0,1097.145751953125,['p'],0.9784269332885742,d,694.0
lattice,696,r,img/target_4.png,3,8,0.05000000074505806,0.0,1098.2271728515625,['r'],2.361575126647949,d,695.0
lattice,697,w,img/target_2.png,3,6,0.05000000074505806,1.0,1100.677001953125,['w'],0.9280650615692139,d,696.0
lattice,698,i,img/target_8.png,3,4,0.05000000074505806,1.0,1101.709716796875,['i'],2.126028060913086,d,697.0
lattice,699,e,img/target_3.png,3,5,0.05000000074505806,1.0,1103.92724609375,['e'],1.1405270099639893,d,698.0
lattice,700,q,img/target_1.png,3,3,0.05000000074505806,1.0,1105.1597900390625,['q'],1.236772060394287,d,699.0
lattice,701,e,img/target_3.png,3,5,0.05000000074505806,1.0,1106.49365234375,['e'],1.4868168830871582,d,700.0
lattice,702,i,img/target_8.png,3,4,0.05000000074505806,1.0,1108.0775146484375,['i'],1.3819301128387451,d,701.0
lattice,703,u,img/target_7.png,3,2,0.05000000074505806,1.0,1109.5633544921875,['u'],0.6090819835662842,d,702.0
lattice,704,p,img/target_10.png,3,0,0.05000000074505806,1.0,1110.277587890625,['p'],0.8459420204162598,d,703.0
lattice,705,u,img/target_7.png,3,2,0.05000000074505806,1.0,1111.227294921875,['u'],0.7923479080200195,d,704.0
lattice,706,i,img/target_8.png,3,4,0.05000000074505806,1.0,1112.1112060546875,['i'],0.6048448085784912,d,705.0
lattice,707,w,img/target_2.png,3,6,0.05000000074505806,1.0,1112.8121337890625,['w'],0.8872201442718506,d,706.0
lattice,708,r,img/target_4.png,3,8,0.05000000074505806,1.0,1113.7943115234375,['r'],1.0498058795928955,d,707.0
lattice,709,b,img/target_6.png,3,7,0.05000000074505806,1.0,1114.9444580078125,['b'],0.9637019634246826,d,708.0
lattice,710,r,img/target_4.png,3,8,0.05000000074505806,1.0,1116.0108642578125,['r'],1.0173981189727783,d,709.0
lattice,711,w,img/target_2.png,3,6,0.05000000074505806,1.0,1117.1287841796875,['w'],0.8990159034729004,d,710.0
lattice,712,b,img/target_6.png,3,7,0.05000000074505806,1.0,1118.1290283203125,['b'],0.986253023147583,d,711.0
lattice,713,r,img/target_4.png,3,8,0.05000000074505806,1.0,1119.2127685546875,['r'],0.9265260696411133,d,712.0
lattice,714,o,img/target_9.png,3,9,0.05000000074505806,0.0,1120.2452392578125,['o'],2.2697529792785645,d,713.0
lattice,715,b,img/target_6.png,3,7,0.05000000074505806,1.0,1122.59521484375,['b'],1.2078399658203125,d,714.0
lattice,716,e,img/target_3.png,3,5,0.05000000074505806,1.0,1123.896240234375,['e'],1.3468730449676514,d,715.0
lattice,717,q,img/target_1.png,3,3,0.05000000074505806,1.0,1125.3472900390625,['q'],1.0249378681182861,d,716.0
lattice,718,v,img/target_5.png,3,1,0.05000000074505806,1.0,1126.479736328125,['v'],2.1401288509368896,d,717.0
lattice,719,o,img/target_9.png,3,9,0.05000000074505806,0.0,1128.713623046875,['o'],1.9375278949737549,d,718.0
lattice,720,r,img/target_4.png,3,8,0.05000000074505806,1.0,1130.729248046875,['r'],1.0738489627838135,d,719.0
lattice,721,p,img/target_10.png,3,0,0.05000000074505806,1.0,1131.8968505859375,['p'],1.0178501605987549,d,720.0
lattice,722,v,img/target_5.png,3,1,0.05000000074505806,1.0,1133.0135498046875,['v'],0.9732630252838135,d,721.0
lattice,723,u,img/target_7.png,3,2,0.05000000074505806,1.0,1134.08056640625,['u'],1.427145004272461,d,722.0
lattice,724,v,img/target_5.png,3,1,0.05000000074505806,1.0,1135.61279296875,['v'],0.9988698959350586,d,723.0
lattice,725,p,img/target_10.png,3,0,0.05000000074505806,1.0,1136.7139892578125,['p'],1.705826997756958,d,724.0
lattice,726,r,img/target_4.png,3,8,0.05000000074505806,1.0,1138.5137939453125,['r'],1.1218340396881104,d,725.0
lattice,727,p,img/target_10.png,3,0,0.05000000074505806,0.0,1139.7308349609375,['p'],1.6955130100250244,d,726.0
lattice,728,v,img/target_5.png,3,1,0.05000000074505806,1.0,1141.513916015625,['v'],0.8968172073364258,d,727.0
lattice,729,p,img/target_10.png,3,0,0.05000000074505806,1.0,1142.5137939453125,['p'],1.000641107559204,d,728.0
lattice,730,o,img/target_9.png,3,9,0.05000000074505806,1.0,1143.6136474609375,['o'],0.4860658645629883,d,729.0
lattice,731,v,img/target_5.png,3,1,0.05000000074505806,1.0,1144.197021484375,['v'],0.829308032989502,d,730.0
lattice,732,q,img/target_1.png,3,3,0.05000000074505806,1.0,1145.1358642578125,['q'],0.9947121143341064,d,731.0
lattice,733,e,img/target_3.png,3,5,0.05000000074505806,1.0,1146.23046875,['e'],0.9567499160766602,d,732.0
lattice,734,b,img/target_6.png,3,7,0.05000000074505806,0.0,1147.281005859375,['b'],2.1130881309509277,d,733.0
lattice,735,r,img/target_4.png,3,8,0.05000000074505806,1.0,1149.4822998046875,['r'],1.2164318561553955,d,734.0
lattice,736,b,img/target_6.png,3,7,0.05000000074505806,1.0,1150.7984619140625,['b'],0.8842041492462158,d,735.0
lattice,737,w,img/target_2.png,3,6,0.05000000074505806,1.0,1151.784912109375,['w'],0.9941310882568359,d,736.0
lattice,738,b,img/target_6.png,3,7,0.05000000074505806,1.0,1152.883544921875,['b'],0.9186451435089111,d,737.0
lattice,739,r,img/target_4.png,3,8,0.05000000074505806,1.0,1153.8995361328125,['r'],0.9583561420440674,d,738.0
lattice,740,p,img/target_10.png,3,0,0.05000000074505806,1.0,1154.9488525390625,['p'],1.0782299041748047,d,739.0
lattice,741,o,img/target_9.png,3,9,0.05000000074505806,1.0,1156.1319580078125,['o'],0.5178170204162598,d,740.0
lattice,742,b,img/target_6.png,3,7,0.05000000074505806,1.0,1156.7493896484375,['b'],0.8615829944610596,d,741.0
lattice,743,e,img/target_3.png,3,5,0.05000000074505806,1.0,1157.7149658203125,['e'],1.09499192237854,d,742.0
lattice,744,b,img/target_6.png,3,7,0.05000000074505806,1.0,1158.8992919921875,['b'],1.0704340934753418,d,743.0
lattice,745,e,img/target_3.png,3,5,0.05000000074505806,1.0,1160.06640625,['e'],1.0318760871887207,d,744.0
lattice,746,b,img/target_6.png,3,7,0.05000000074505806,1.0,1161.1990966796875,['b'],0.6193640232086182,d,745.0
lattice,747,e,img/target_3.png,3,5,0.05000000074505806,1.0,1161.9205322265625,['e'],0.5783138275146484,d,746.0
lattice,748,i,img/target_8.png,3,4,0.05000000074505806,1.0,1162.60009765625,['i'],3.9784300327301025,d,747.0
lattice,749,w,img/target_2.png,3,6,0.05000000074505806,1.0,1166.6826171875,['w'],1.0311148166656494,d,748.0
lattice,750,r,img/target_4.png,3,8,0.05000000074505806,1.0,1167.8165283203125,['r'],1.144860029220581,d,749.0
lattice,751,b,img/target_6.png,3,7,0.05000000074505806,1.0,1169.0672607421875,['b'],0.9506368637084961,d,750.0
lattice,752,e,img/target_3.png,3,5,0.05000000074505806,1.0,1170.116455078125,['e'],1.0528309345245361,d,751.0
lattice,753,i,img/target_8.png,3,4,0.05000000074505806,0.0,1171.2666015625,['i'],2.022557020187378,d,752.0
lattice,754,q,img/target_1.png,3,3,0.05000000074505806,1.0,1173.36767578125,['q'],1.4018809795379639,d,753.0
lattice,755,e,img/target_3.png,3,5,0.05000000074505806,1.0,1174.867919921875,['e'],1.1105170249938965,d,754.0
lattice,756,b,img/target_6.png,3,7,0.05000000074505806,1.0,1176.08349609375,['b'],0.965925931930542,d,755.0
lattice,757,o,img/target_9.png,3,9,0.05000000074505806,1.0,1177.154052734375,['o'],1.167999029159546,d,756.0
lattice,758,p,img/target_10.png,3,0,0.05000000074505806,1.0,1178.4183349609375,['p'],0.5829589366912842,d,757.0
lattice,759,v,img/target_5.png,3,1,0.05000000074505806,1.0,1179.100341796875,['v'],0.8368880748748779,d,758.0
lattice,760,q,img/target_1.png,3,3,0.05000000074505806,1.0,1180.0335693359375,['q'],1.1520991325378418,d,759.0
lattice,761,e,img/target_3.png,3,5,0.05000000074505806,1.0,1181.2843017578125,['e'],0.9725570678710938,d,760.0
lattice,762,i,img/target_8.png,3,4,0.05000000074505806,1.0,1182.3507080078125,['i'],1.6263971328735352,d,761.0
lattice,763,e,img/target_3.png,3,5,0.05000000074505806,1.0,1184.068115234375,['e'],1.2376911640167236,d,762.0
lattice,764,i,img/target_8.png,3,4,0.05000000074505806,1.0,1185.4012451171875,['i'],1.4795620441436768,d,763.0
lattice,765,u,img/target_7.png,3,2,0.05000000074505806,1.0,1186.98681640625,['u'],0.7421300411224365,d,764.0
lattice,766,p,img/target_10.png,3,0,0.05000000074505806,1.0,1187.821533203125,['p'],0.860482931137085,d,765.0
lattice,767,v,img/target_5.png,3,1,0.05000000074505806,1.0,1188.7847900390625,['v'],0.8572349548339844,d,766.0
lattice,768,o,img/target_9.png,3,9,0.05000000074505806,1.0,1189.73583984375,['o'],1.1698248386383057,d,767.0
lattice,769,v,img/target_5.png,3,1,0.05000000074505806,1.0,1191.0020751953125,['v'],0.8636698722839355,d,768.0
lattice,770,u,img/target_7.png,3,2,0.05000000074505806,1.0,1191.96923828125,['u'],1.2163782119750977,d,769.0
lattice,771,i,img/target_8.png,3,4,0.05000000074505806,1.0,1193.2852783203125,['i'],0.5408391952514648,d,770.0
lattice,772,u,img/target_7.png,3,2,0.05000000074505806,1.0,1193.919677734375,['u'],0.5392019748687744,d,771.0
lattice,773,i,img/target_8.png,3,4,0.05000000074505806,1.0,1194.5521240234375,['i'],0.5534629821777344,d,772.0
lattice,774,e,img/target_3.png,3,5,0.05000000074505806,1.0,1195.201904296875,['e'],1.039729118347168,d,773.0
lattice,775,q,img/target_1.png,3,3,0.05000000074505806,1.0,1196.3363037109375,['q'],0.8572399616241455,d,774.0
lattice,776,u,img/target_7.png,3,2,0.05000000074505806,1.0,1197.2861328125,['u'],0.908513069152832,d,775.0
lattice,777,v,img/target_5.png,3,1,0.05000000074505806,1.0,1198.2857666015625,['v'],1.0521280765533447,d,776.0
lattice,778,u,img/target_7.png,3,2,0.05000000074505806,1.0,1199.437255859375,['u'],1.0047028064727783,d,777.0
lattice,779,i,img/target_8.png,3,4,0.05000000074505806,1.0,1200.53564453125,['i'],0.5217940807342529,d,778.0
lattice,780,u,img/target_7.png,3,2,0.05000000074505806,1.0,1201.153076171875,['u'],0.600193977355957,d,779.0
lattice,781,p,img/target_10.png,3,0,0.05000000074505806,1.0,1201.853759765625,['p'],0.95694899559021,d,780.0
lattice,782,o,img/target_9.png,3,9,0.05000000074505806,1.0,1202.9027099609375,['o'],0.6187469959259033,d,781.0
lattice,783,r,img/target_4.png,3,8,0.05000000074505806,1.0,1203.623046875,['r'],1.1463351249694824,d,782.0
lattice,784,w,img/target_2.png,3,6,0.05000000074505806,1.0,1204.87109375,['w'],0.9707448482513428,d,783.0
lattice,785,r,img/target_4.png,3,8,0.05000000074505806,1.0,1205.9373779296875,['r'],0.8479981422424316,d,784.0
lattice,786,w,img/target_2.png,3,6,0.05000000074505806,1.0,1206.8873291015625,['w'],0.7622051239013672,d,785.0
lattice,787,i,img/target_8.png,3,4,0.05000000074505806,0.0,1207.753173828125,['i'],1.9603660106658936,d,786.0
lattice,788,q,img/target_1.png,3,3,0.05000000074505806,1.0,1209.78759765625,['q'],1.9738061428070068,d,787.0
lattice,789,i,img/target_8.png,3,4,0.05000000074505806,0.0,1211.853759765625,['i'],1.9311599731445312,d,788.0
lattice,790,e,img/target_3.png,3,5,0.05000000074505806,1.0,1213.8707275390625,['e'],1.3621940612792969,d,789.0
lattice,791,q,img/target_1.png,3,3,0.05000000074505806,1.0,1215.341064453125,['q'],1.2118110656738281,d,790.0
lattice,792,e,img/target_3.png,3,5,0.05000000074505806,1.0,1216.6539306640625,['e'],1.3069751262664795,d,791.0
lattice,793,b,img/target_6.png,3,7,0.05000000074505806,0.0,1218.055419921875,['b'],1.9215319156646729,d,792.0
lattice,794,r,img/target_4.png,3,8,0.05000000074505806,1.0,1220.0543212890625,['r'],1.3625919818878174,d,793.0
lattice,795,w,img/target_2.png,3,6,0.05000000074505806,1.0,1221.52099609375,['w'],1.1678190231323242,d,794.0
lattice,796,i,img/target_8.png,3,4,0.05000000074505806,1.0,1222.789794921875,['i'],1.3472719192504883,d,795.0
lattice,797,u,img/target_7.png,3,2,0.05000000074505806,1.0,1224.2381591796875,['u'],0.5941410064697266,d,796.0
lattice,798,i,img/target_8.png,3,4,0.05000000074505806,1.0,1224.922119140625,['i'],0.5186121463775635,d,797.0
lattice,799,q,img/target_1.png,3,3,0.05000000074505806,1.0,1225.5391845703125,['q'],1.0373430252075195,d,798.0
lattice,800,u,img/target_7.png,3,2,0.05000000074505806,1.0,1226.6715087890625,['u'],0.9689488410949707,d,799.0
lattice,801,q,img/target_1.png,3,3,0.05000000074505806,1.0,1227.739013671875,['q'],0.9177100658416748,d,800.0
lattice,802,u,img/target_7.png,3,2,0.05000000074505806,1.0,1228.75634765625,['u'],0.7247769832611084,d,801.0
lattice,803,i,img/target_8.png,3,4,0.05000000074505806,1.0,1229.57275390625,['i'],0.5396509170532227,d,802.0
lattice,804,w,img/target_2.png,3,6,0.05000000074505806,1.0,1230.2056884765625,['w'],0.8266730308532715,d,803.0
lattice,805,r,img/target_4.png,3,8,0.05000000074505806,1.0,1231.1229248046875,['r'],1.0706510543823242,d,804.0
lattice,806,w,img/target_2.png,3,6,0.05000000074505806,1.0,1232.288818359375,['w'],0.9835960865020752,d,805.0
lattice,807,b,img/target_6.png,3,7,0.05000000074505806,1.0,1233.3731689453125,['b'],1.0435051918029785,d,806.0
lattice,808,w,img/target_2.png,3,6,0.05000000074505806,1.0,1234.5255126953125,['w'],0.970674991607666,d,807.0
lattice,809,e,img/target_3.png,3,5,0.05000000074505806,1.0,1235.5899658203125,['e'],0.7704370021820068,d,808.0
lattice,810,i,img/target_8.png,3,4,0.05000000074505806,1.0,1236.4556884765625,['i'],1.096423864364624,d,809.0
lattice,811,w,img/target_2.png,3,6,0.05000000074505806,1.0,1237.6572265625,['w'],0.7508938312530518,d,810.0
lattice,812,i,img/target_8.png,3,4,0.05000000074505806,1.0,1238.506591796875,['i'],0.9336018562316895,d,811.0
lattice,813,e,img/target_3.png,3,5,0.05000000074505806,0.0,1239.540283203125,['e'],1.0120599269866943,d,812.0
lattice,814,q,img/target_1.png,3,3,0.05000000074505806,1.0,1240.6397705078125,['q'],0.5525529384613037,d,813.0
lattice,815,e,img/target_3.png,3,5,0.05000000074505806,0.0,1241.2900390625,['e'],1.2300479412078857,d,814.0
lattice,816,w,img/target_2.png,3,6,0.05000000074505806,1.0,1242.6068115234375,['w'],0.6572508811950684,d,815.0
lattice,817,e,img/target_3.png,3,5,0.05000000074505806,1.0,1243.3575439453125,['e'],0.6583869457244873,d,816.0
lattice,818,w,img/target_2.png,3,6,0.05000000074505806,1.0,1244.1070556640625,['w'],0.49306392669677734,d,817.0
lattice,819,b,img/target_6.png,3,7,0.05000000074505806,1.0,1244.6900634765625,['b'],1.5580568313598633,d,818.0
lattice,820,o,img/target_9.png,3,9,0.05000000074505806,0.0,1246.341064453125,['o'],1.8666439056396484,d,819.0
lattice,821,b,img/target_6.png,3,7,0.05000000074505806,1.0,1248.2904052734375,['b'],1.0294079780578613,d,820.0
lattice,822,r,img/target_4.png,3,8,0.05000000074505806,1.0,1249.4246826171875,['r'],1.327009916305542,d,821.0
lattice,823,o,img/target_9.png,3,9,0.05000000074505806,0.0,1250.84130859375,['o'],1.710404872894287,d,822.0
lattice,824,p,img/target_10.png,3,0,0.05000000074505806,1.0,1252.6243896484375,['p'],0.6711559295654297,d,823.0
lattice,825,v,img/target_5.png,3,1,0.05000000074505806,1.0,1253.3919677734375,['v'],0.8476212024688721,d,824.0
lattice,826,u,img/target_7.png,3,2,0.05000000074505806,1.0,1254.341064453125,['u'],1.1067051887512207,d,825.0
lattice,827,q,img/target_1.png,3,3,0.05000000074505806,1.0,1255.5413818359375,['q'],1.1299779415130615,d,826.0
lattice,828,u,img/target_7.png,3,2,0.05000000074505806,1.0,1256.7742919921875,['u'],1.2341868877410889,d,827.0
lattice,829,p,img/target_10.png,3,0,0.05000000074505806,1.0,1258.109375,['p'],0.9062769412994385,d,828.0
lattice,830,u,img/target_7.png,3,2,0.05000000074505806,1.0,1259.108642578125,['u'],0.9078571796417236,d,829.0
lattice,831,p,img/target_10.png,3,0,0.05000000074505806,1.0,1260.109130859375,['p'],1.0742850303649902,d,830.0
lattice,832,r,img/target_4.png,3,8,0.05000000074505806,1.0,1261.274658203125,['r'],1.100776195526123,d,831.0
lattice,833,p,img/target_10.png,3,0,0.05000000074505806,1.0,1262.4749755859375,['p'],0.7323999404907227,d,832.0
lattice,834,v,img/target_5.png,3,1,0.05000000074505806,1.0,1263.3082275390625,['v'],0.8832151889801025,d,833.0
lattice,835,p,img/target_10.png,3,0,0.05000000074505806,1.0,1264.2930908203125,['p'],0.650191068649292,d,834.0
lattice,836,v,img/target_5.png,3,1,0.05000000074505806,1.0,1265.0426025390625,['v'],0.6206691265106201,d,835.0
lattice,837,o,img/target_9.png,3,9,0.05000000074505806,1.0,1265.7601318359375,['o'],0.8789210319519043,d,836.0
lattice,838,b,img/target_6.png,3,7,0.05000000074505806,1.0,1266.741943359375,['b'],0.9776191711425781,d,837.0
lattice,839,e,img/target_3.png,3,5,0.05000000074505806,1.0,1267.8096923828125,['e'],1.2375030517578125,d,838.0
lattice,840,b,img/target_6.png,3,7,0.05000000074505806,0.0,1269.14306640625,['b'],2.1037888526916504,d,839.0
lattice,841,o,img/target_9.png,3,9,0.05000000074505806,0.0,1271.3262939453125,['o'],1.7137250900268555,d,840.0
lattice,842,p,img/target_10.png,3,0,0.05000000074505806,1.0,1273.12646484375,['p'],0.5766890048980713,d,841.0
lattice,843,o,img/target_9.png,3,9,0.05000000074505806,1.0,1273.793212890625,['o'],0.4776790142059326,d,842.0
lattice,844,p,img/target_10.png,3,0,0.05000000074505806,1.0,1274.3773193359375,['p'],0.46958494186401367,d,843.0
lattice,845,o,img/target_9.png,3,9,0.05000000074505806,1.0,1274.944580078125,['o'],0.8306069374084473,d,844.0
lattice,846,r,img/target_4.png,3,8,0.05000000074505806,1.0,1275.8763427734375,['r'],1.0591650009155273,d,845.0
lattice,847,p,img/target_10.png,3,0,0.05000000074505806,1.0,1277.026611328125,['p'],0.9006261825561523,d,846.0
lattice,848,v,img/target_5.png,3,1,0.05000000074505806,1.0,1278.0267333984375,['v'],0.7960059642791748,d,847.0
lattice,849,p,img/target_10.png,3,0,0.05000000074505806,1.0,1278.9276123046875,['p'],0.6548709869384766,d,848.0
lattice,850,r,img/target_4.png,3,8,0.05000000074505806,1.0,1279.677734375,['r'],1.0089709758758545,d,849.0
lattice,851,w,img/target_2.png,3,6,0.05000000074505806,1.0,1280.7777099609375,['w'],1.1414871215820312,d,850.0
lattice,852,i,img/target_8.png,3,4,0.05000000074505806,1.0,1282.0106201171875,['i'],3.8838860988616943,d,851.0
lattice,853,e,img/target_3.png,3,5,0.05000000074505806,1.0,1285.993896484375,['e'],1.173997163772583,d,852.0
lattice,854,b,img/target_6.png,3,7,0.05000000074505806,1.0,1287.2606201171875,['b'],1.738144874572754,d,853.0
lattice,855,o,img/target_9.png,3,9,0.05000000074505806,1.0,1289.09521484375,['o'],1.2711470127105713,d,854.0
lattice,856,p,img/target_10.png,3,0,0.05000000074505806,1.0,1290.4609375,['p'],0.5618040561676025,d,855.0
lattice,857,u,img/target_7.png,3,2,0.05000000074505806,1.0,1291.1275634765625,['u'],1.0307409763336182,d,856.0
lattice,858,q,img/target_1.png,3,3,0.05000000074505806,1.0,1292.2623291015625,['q'],1.0642731189727783,d,857.0
lattice,859,e,img/target_3.png,3,5,0.05000000074505806,1.0,1293.4290771484375,['e'],0.9454379081726074,d,858.0
lattice,860,i,img/target_8.png,3,4,0.05000000074505806,0.0,1294.4798583984375,['i'],3.0059680938720703,d,859.0
lattice,861,e,img/target_3.png,3,5,0.05000000074505806,1.0,1297.56298828125,['e'],1.4028630256652832,d,860.0
lattice,862,q,img/target_1.png,3,3,0.05000000074505806,1.0,1299.0625,['q'],1.0159201622009277,d,861.0
lattice,863,e,img/target_3.png,3,5,0.05000000074505806,1.0,1300.179931640625,['e'],0.7628068923950195,d,862.0
lattice,864,w,img/target_2.png,3,6,0.05000000074505806,1.0,1301.0452880859375,['w'],1.296854019165039,d,863.0
lattice,865,e,img/target_3.png,3,5,0.05000000074505806,1.0,1302.4503173828125,['e'],0.6276650428771973,d,864.0
lattice,866,b,img/target_6.png,3,7,0.05000000074505806,1.0,1303.1787109375,['b'],1.2359020709991455,d,865.0
lattice,867,e,img/target_3.png,3,5,0.05000000074505806,1.0,1304.5137939453125,['e'],1.7080719470977783,d,866.0
lattice,868,q,img/target_1.png,3,3,0.05000000074505806,1.0,1306.3128662109375,['q'],1.1087830066680908,d,867.0
lattice,869,e,img/target_3.png,3,5,0.05000000074505806,1.0,1307.513427734375,['e'],0.9406569004058838,d,868.0
lattice,870,w,img/target_2.png,3,6,0.05000000074505806,1.0,1308.546630859375,['w'],0.8592040538787842,d,869.0
lattice,871,b,img/target_6.png,3,7,0.05000000074505806,1.0,1309.4969482421875,['b'],1.4610888957977295,d,870.0
lattice,872,r,img/target_4.png,3,8,0.05000000074505806,1.0,1311.0628662109375,['r'],0.8548309803009033,d,871.0
lattice,873,p,img/target_10.png,3,0,0.05000000074505806,1.0,1312.01416015625,['p'],1.1194260120391846,d,872.0
lattice,874,v,img/target_5.png,3,1,0.05000000074505806,0.0,1313.229736328125,['v'],2.568861961364746,d,873.0
lattice,875,p,img/target_10.png,3,0,0.05000000074505806,1.0,1315.881103515625,['p'],1.3241808414459229,d,874.0
lattice,876,r,img/target_4.png,3,8,0.05000000074505806,1.0,1317.2974853515625,['r'],1.0358059406280518,d,875.0
lattice,877,o,img/target_9.png,3,9,0.05000000074505806,1.0,1318.4310302734375,['o'],0.7421350479125977,d,876.0
lattice,878,b,img/target_6.png,3,7,0.05000000074505806,1.0,1319.2645263671875,['b'],0.9327528476715088,d,877.0
lattice,879,w,img/target_2.png,3,6,0.05000000074505806,1.0,1320.2978515625,['w'],1.0914678573608398,d,878.0
lattice,880,i,img/target_8.png,3,4,0.05000000074505806,0.0,1321.4814453125,['i'],3.379453182220459,d,879.0
lattice,881,q,img/target_1.png,3,3,0.05000000074505806,1.0,1324.9476318359375,['q'],1.0491960048675537,d,880.0
lattice,882,e,img/target_3.png,3,5,0.05000000074505806,1.0,1326.0975341796875,['e'],0.9635231494903564,d,881.0
lattice,883,i,img/target_8.png,3,4,0.05000000074505806,1.0,1327.1654052734375,['i'],1.4244999885559082,d,882.0
lattice,884,q,img/target_1.png,3,3,0.05000000074505806,1.0,1328.68115234375,['q'],1.2763161659240723,d,883.0
lattice,885,v,img/target_5.png,3,1,0.05000000074505806,1.0,1330.0489501953125,['v'],0.9242899417877197,d,884.0
lattice,886,o,img/target_9.png,3,9,0.05000000074505806,1.0,1331.0662841796875,['o'],1.1466782093048096,d,885.0
lattice,887,p,img/target_10.png,3,0,0.05000000074505806,1.0,1332.3148193359375,['p'],0.6103990077972412,d,886.0
lattice,888,v,img/target_5.png,3,1,0.05000000074505806,1.0,1333.0162353515625,['v'],0.8768918514251709,d,887.0
lattice,889,o,img/target_9.png,3,9,0.05000000074505806,1.0,1333.998779296875,['o'],0.8622589111328125,d,888.0
lattice,890,p,img/target_10.png,3,0,0.05000000074505806,1.0,1334.9671630859375,['p'],0.645535945892334,d,889.0
lattice,891,o,img/target_9.png,3,9,0.05000000074505806,1.0,1335.7158203125,['o'],0.585003137588501,d,890.0
lattice,892,r,img/target_4.png,3,8,0.05000000074505806,0.0,1336.3988037109375,['r'],2.3421640396118164,d,891.0
lattice,893,p,img/target_10.png,3,0,0.05000000074505806,1.0,1338.8157958984375,['p'],1.0611450672149658,d,892.0
lattice,894,r,img/target_4.png,3,8,0.05000000074505806,1.0,1339.966796875,['r'],1.4859330654144287,d,893.0
lattice,895,w,img/target_2.png,3,6,0.05000000074505806,1.0,1341.550048828125,['w'],1.1502459049224854,d,894.0
lattice,896,r,img/target_4.png,3,8,0.05000000074505806,1.0,1342.8026123046875,['r'],0.9059209823608398,d,895.0
lattice,897,o,img/target_9.png,3,9,0.05000000074505806,1.0,1343.7996826171875,['o'],1.0447978973388672,d,896.0
lattice,898,r,img/target_4.png,3,8,0.05000000074505806,1.0,1344.936279296875,['r'],1.1488220691680908,d,897.0
lattice,899,o,img/target_9.png,3,9,0.05000000074505806,1.0,1346.183349609375,['o'],0.7423808574676514,d,898.0
lattice,900,p,img/target_10.png,3,0,0.05000000074505806,1.0,1347.0330810546875,['p'],0.643669843673706,d,899.0
lattice,901,r,img/target_4.png,3,8,0.05000000074505806,1.0,1347.7664794921875,['r'],1.141793966293335,d,900.0
lattice,902,b,img/target_6.png,3,7,0.05000000074505806,1.0,1349.004638671875,['b'],0.9838011264801025,d,901.0
lattice,903,o,img/target_9.png,3,9,0.05000000074505806,1.0,1350.086669921875,['o'],1.021956205368042,d,902.0
lattice,904,b,img/target_6.png,3,7,0.05000000074505806,1.0,1351.2001953125,['b'],0.9322741031646729,d,903.0
lattice,905,w,img/target_2.png,3,6,0.05000000074505806,1.0,1352.23583984375,['w'],0.8484718799591064,d,904.0
lattice,906,b,img/target_6.png,3,7,0.05000000074505806,1.0,1353.1845703125,['b'],0.63590407371521,d,905.0
lattice,907,w,img/target_2.png,3,6,0.05000000074505806,1.0,1353.9169921875,['w'],0.5763540267944336,d,906.0
lattice,908,e,img/target_3.png,3,5,0.05000000074505806,1.0,1354.6016845703125,['e'],0.6425120830535889,d,907.0
lattice,909,q,img/target_1.png,3,3,0.05000000074505806,1.0,1355.334716796875,['q'],0.6866669654846191,d,908.0
lattice,910,e,img/target_3.png,3,5,0.05000000074505806,0.0,1356.1180419921875,['e'],1.0538928508758545,d,909.0
lattice,911,w,img/target_2.png,3,6,0.05000000074505806,1.0,1357.250732421875,['w'],0.5932631492614746,d,910.0
lattice,912,i,img/target_8.png,3,4,0.05000000074505806,1.0,1357.9354248046875,['i'],0.9964621067047119,d,911.0
