graph,trialNum,resp,path,pID,walk,ISI_raw,correct_raw,onset_raw,resp_raw,rt_raw,typing_raw,order
lattice,1,i,img/target_8.png,1,5,0.05000000074505806,1.0,0.009892940521240234,['i'],2.8319740295410156,a,0.0
lattice,2,p,img/target_10.png,1,6,0.05000000074505806,1.0,2.942291021347046,['p'],0.8031220436096191,a,1.0
lattice,3,w,img/target_2.png,1,4,0.05000000074505806,1.0,3.840481996536255,['w'],0.9858660697937012,a,2.0
lattice,4,q,img/target_1.png,1,2,0.05000000074505806,1.0,4.9255290031433105,['q'],0.9000530242919922,a,3.0
lattice,5,v,img/target_5.png,1,1,0.05000000074505806,1.0,5.923240661621094,['v'],1.0782239437103271,a,4.0
lattice,6,q,img/target_1.png,1,2,0.05000000074505806,1.0,7.087798118591309,['q'],0.945559024810791,a,5.0
lattice,7,b,img/target_6.png,1,0,0.05000000074505806,1.0,8.124187469482422,['b'],1.1501569747924805,a,6.0
lattice,8,u,img/target_7.png,1,8,0.05000000074505806,1.0,9.375814437866211,['u'],0.8665609359741211,a,7.0
lattice,9,b,img/target_6.png,1,0,0.05000000074505806,1.0,10.337892532348633,['b'],0.7522099018096924,a,8.0
lattice,10,u,img/target_7.png,1,8,0.05000000074505806,1.0,11.18758487701416,['u'],0.581672191619873,a,9.0
lattice,11,r,img/target_4.png,1,9,0.05000000074505806,1.0,11.874979972839355,['r'],0.7342150211334229,a,10.0
lattice,12,e,img/target_3.png,1,7,0.05000000074505806,1.0,12.709087371826172,['e'],0.6526241302490234,a,11.0
lattice,13,p,img/target_10.png,1,6,0.05000000074505806,1.0,13.455659866333008,['p'],0.8101520538330078,a,12.0
lattice,14,u,img/target_7.png,1,8,0.05000000074505806,1.0,14.357635498046875,['u'],1.0037710666656494,a,13.0
lattice,15,b,img/target_6.png,1,0,0.05000000074505806,1.0,15.457185745239258,['b'],0.7359950542449951,a,14.0
lattice,16,u,img/target_7.png,1,8,0.05000000074505806,1.0,16.288177490234375,['u'],0.8089799880981445,a,15.0
lattice,17,e,img/target_3.png,1,7,0.05000000074505806,1.0,17.19021987915039,['e'],1.3870980739593506,a,16.0
lattice,18,r,img/target_4.png,1,9,0.05000000074505806,1.0,18.674009323120117,['r'],0.7997901439666748,a,17.0
lattice,19,v,img/target_5.png,1,1,0.05000000074505806,1.0,19.574129104614258,['v'],1.1229801177978516,a,18.0
lattice,20,b,img/target_6.png,1,0,0.05000000074505806,0.0,20.78965187072754,['b'],2.4352359771728516,a,19.0
lattice,21,v,img/target_5.png,1,1,0.05000000074505806,1.0,23.3056583404541,['v'],0.743060827255249,a,20.0
lattice,22,o,img/target_9.png,1,3,0.05000000074505806,1.0,24.142412185668945,['o'],0.9634110927581787,a,21.0
lattice,23,i,img/target_8.png,1,5,0.05000000074505806,1.0,25.20657730102539,['i'],1.930771827697754,a,22.0
lattice,24,w,img/target_2.png,1,4,0.05000000074505806,1.0,27.22267723083496,['w'],1.035125970840454,a,23.0
lattice,25,q,img/target_1.png,1,2,0.05000000074505806,1.0,28.35690689086914,['q'],0.6847419738769531,a,24.0
lattice,26,o,img/target_9.png,1,3,0.05000000074505806,1.0,29.140695571899414,['o'],1.3169658184051514,a,25.0
lattice,27,w,img/target_2.png,1,4,0.05000000074505806,1.0,30.559404373168945,['w'],0.7377941608428955,a,26.0
lattice,28,p,img/target_10.png,1,6,0.05000000074505806,1.0,31.390865325927734,['p'],1.4825148582458496,a,27.0
lattice,29,e,img/target_3.png,1,7,0.05000000074505806,0.0,32.973201751708984,['e'],1.7081570625305176,a,28.0
lattice,30,u,img/target_7.png,1,8,0.05000000074505806,1.0,34.757835388183594,['u'],0.6746571063995361,a,29.0
lattice,31,p,img/target_10.png,1,6,0.05000000074505806,1.0,35.5243034362793,['p'],0.7009580135345459,a,30.0
lattice,32,w,img/target_2.png,1,4,0.05000000074505806,1.0,36.32338333129883,['w'],0.8931539058685303,a,31.0
lattice,33,q,img/target_1.png,1,2,0.05000000074505806,1.0,37.306941986083984,['q'],1.1733388900756836,a,32.0
lattice,34,w,img/target_2.png,1,4,0.05000000074505806,1.0,38.574466705322266,['w'],0.858867883682251,a,33.0
lattice,35,i,img/target_8.png,1,5,0.05000000074505806,0.0,39.52442932128906,['i'],1.7645609378814697,a,34.0
lattice,36,p,img/target_10.png,1,6,0.05000000074505806,1.0,41.37425994873047,['p'],0.8018109798431396,a,35.0
lattice,37,e,img/target_3.png,1,7,0.05000000074505806,0.0,42.27499008178711,['e'],2.9570438861846924,a,36.0
lattice,38,r,img/target_4.png,1,9,0.05000000074505806,1.0,45.30774688720703,['r'],1.628938913345337,a,37.0
lattice,39,v,img/target_5.png,1,1,0.05000000074505806,1.0,47.025699615478516,['v'],1.4149301052093506,a,38.0
lattice,40,q,img/target_1.png,1,2,0.05000000074505806,0.0,48.54146957397461,['q'],1.643347978591919,a,39.0
lattice,41,b,img/target_6.png,1,0,0.05000000074505806,1.0,50.258544921875,['b'],1.7013518810272217,a,40.0
lattice,42,r,img/target_4.png,1,9,0.05000000074505806,1.0,52.058204650878906,['r'],0.8617181777954102,a,41.0
lattice,43,v,img/target_5.png,1,1,0.05000000074505806,1.0,53.00929641723633,['v'],1.3184549808502197,a,42.0
lattice,44,q,img/target_1.png,1,2,0.05000000074505806,1.0,54.42745590209961,['q'],1.2611300945281982,a,43.0
lattice,45,o,img/target_9.png,1,3,0.05000000074505806,0.0,55.77867126464844,['o'],4.453699111938477,a,44.0
lattice,46,w,img/target_2.png,1,4,0.05000000074505806,1.0,60.314476013183594,['w'],1.6539428234100342,a,45.0
lattice,47,o,img/target_9.png,1,3,0.05000000074505806,1.0,62.059322357177734,['o'],1.5006420612335205,a,46.0
lattice,48,i,img/target_8.png,1,5,0.05000000074505806,1.0,63.6599006652832,['i'],2.059468984603882,a,47.0
lattice,49,p,img/target_10.png,1,6,0.05000000074505806,1.0,65.81034088134766,['p'],1.0290350914001465,a,48.0
lattice,50,w,img/target_2.png,1,4,0.05000000074505806,1.0,66.92613220214844,['w'],0.802297830581665,a,49.0
lattice,51,q,img/target_1.png,1,2,0.05000000074505806,1.0,67.82654571533203,['q'],0.8368170261383057,a,50.0
lattice,52,b,img/target_6.png,1,0,0.05000000074505806,1.0,68.76024627685547,['b'],1.070958137512207,a,51.0
lattice,53,u,img/target_7.png,1,8,0.05000000074505806,1.0,69.92710876464844,['u'],0.9924640655517578,a,52.0
lattice,54,e,img/target_3.png,1,7,0.05000000074505806,0.0,71.01116943359375,['e'],1.9084341526031494,a,53.0
lattice,55,p,img/target_10.png,1,6,0.05000000074505806,1.0,72.99564361572266,['p'],2.02833890914917,a,54.0
lattice,56,w,img/target_2.png,1,4,0.05000000074505806,1.0,75.11239624023438,['w'],0.9347751140594482,a,55.0
lattice,57,p,img/target_10.png,1,6,0.05000000074505806,1.0,76.14693450927734,['p'],1.0124261379241943,a,56.0
lattice,58,u,img/target_7.png,1,8,0.05000000074505806,1.0,77.2647705078125,['u'],1.022834062576294,a,57.0
lattice,59,p,img/target_10.png,1,6,0.05000000074505806,1.0,78.3802261352539,['p'],0.8346929550170898,a,58.0
lattice,60,e,img/target_3.png,1,7,0.05000000074505806,1.0,79.31083679199219,['e'],1.3120861053466797,a,59.0
lattice,61,u,img/target_7.png,1,8,0.05000000074505806,1.0,80.71214294433594,['u'],1.3276958465576172,a,60.0
lattice,62,r,img/target_4.png,1,9,0.05000000074505806,1.0,82.12787628173828,['r'],0.9110190868377686,a,61.0
lattice,63,e,img/target_3.png,1,7,0.05000000074505806,1.0,83.12849426269531,['e'],1.2550411224365234,a,62.0
lattice,64,r,img/target_4.png,1,9,0.05000000074505806,0.0,84.47845458984375,['r'],6.472167015075684,a,63.0
lattice,65,b,img/target_6.png,1,0,0.05000000074505806,0.0,91.02925872802734,['b'],3.697158098220825,a,64.0
lattice,66,v,img/target_5.png,1,1,0.05000000074505806,1.0,94.79544830322266,['v'],0.8993179798126221,a,65.0
lattice,67,r,img/target_4.png,1,9,0.05000000074505806,1.0,95.79776763916016,['r'],0.7691290378570557,a,66.0
lattice,68,v,img/target_5.png,1,1,0.05000000074505806,1.0,96.6623764038086,['v'],0.8001079559326172,a,67.0
lattice,69,o,img/target_9.png,1,3,0.05000000074505806,1.0,97.56718444824219,['o'],1.8870949745178223,a,68.0
lattice,70,i,img/target_8.png,1,5,0.05000000074505806,1.0,99.5463638305664,['i'],1.1321258544921875,a,69.0
lattice,71,o,img/target_9.png,1,3,0.05000000074505806,1.0,100.7804183959961,['o'],1.8505849838256836,a,70.0
lattice,72,i,img/target_8.png,1,5,0.05000000074505806,1.0,102.73335266113281,['i'],1.8327460289001465,a,71.0
lattice,73,o,img/target_9.png,1,3,0.05000000074505806,1.0,104.66333770751953,['o'],1.1195781230926514,a,72.0
lattice,74,w,img/target_2.png,1,4,0.05000000074505806,1.0,105.88081359863281,['w'],1.1651499271392822,a,73.0
lattice,75,p,img/target_10.png,1,6,0.05000000074505806,1.0,107.13143157958984,['p'],1.3148689270019531,a,74.0
lattice,76,u,img/target_7.png,1,8,0.05000000074505806,1.0,108.54704284667969,['u'],1.3069701194763184,a,75.0
lattice,77,p,img/target_10.png,1,6,0.05000000074505806,1.0,109.94725799560547,['p'],3.2905941009521484,a,76.0
lattice,78,w,img/target_2.png,1,4,0.05000000074505806,1.0,113.33085632324219,['w'],0.7474241256713867,a,77.0
lattice,79,i,img/target_8.png,1,5,0.05000000074505806,1.0,114.16707611083984,['i'],1.61468505859375,a,78.0
lattice,80,o,img/target_9.png,1,3,0.05000000074505806,1.0,115.88421630859375,['o'],1.0575320720672607,a,79.0
lattice,81,w,img/target_2.png,1,4,0.05000000074505806,1.0,117.03236389160156,['w'],1.1732590198516846,a,80.0
lattice,82,o,img/target_9.png,1,3,0.05000000074505806,1.0,118.299560546875,['o'],1.8181347846984863,a,81.0
lattice,83,v,img/target_5.png,1,1,0.05000000074505806,1.0,120.21553802490234,['v'],1.0069711208343506,a,82.0
lattice,84,o,img/target_9.png,1,3,0.05000000074505806,1.0,121.31581115722656,['o'],3.7536401748657227,a,83.0
lattice,85,i,img/target_8.png,1,5,0.05000000074505806,1.0,125.16567993164062,['i'],1.8876409530639648,a,84.0
lattice,86,w,img/target_2.png,1,4,0.05000000074505806,1.0,127.14983367919922,['w'],0.8873670101165771,a,85.0
lattice,87,o,img/target_9.png,1,3,0.05000000074505806,1.0,128.13250732421875,['o'],1.1854438781738281,a,86.0
lattice,88,i,img/target_8.png,1,5,0.05000000074505806,1.0,129.415771484375,['i'],1.0374760627746582,a,87.0
lattice,89,w,img/target_2.png,1,4,0.05000000074505806,1.0,130.54916381835938,['w'],0.7118690013885498,a,88.0
lattice,90,p,img/target_10.png,1,6,0.05000000074505806,1.0,131.3492431640625,['p'],1.295827865600586,a,89.0
lattice,91,e,img/target_3.png,1,7,0.05000000074505806,1.0,132.7333984375,['e'],1.6007118225097656,a,90.0
lattice,92,i,img/target_8.png,1,5,0.05000000074505806,1.0,134.43284606933594,['i'],1.5242149829864502,a,91.0
lattice,93,o,img/target_9.png,1,3,0.05000000074505806,1.0,136.05010986328125,['o'],1.0907938480377197,a,92.0
lattice,94,q,img/target_1.png,1,2,0.05000000074505806,1.0,137.2338409423828,['q'],1.1639018058776855,a,93.0
lattice,95,b,img/target_6.png,1,0,0.05000000074505806,1.0,138.50006103515625,['b'],1.5048699378967285,a,94.0
lattice,96,u,img/target_7.png,1,8,0.05000000074505806,1.0,140.1000518798828,['u'],0.7850971221923828,a,95.0
lattice,97,b,img/target_6.png,1,0,0.05000000074505806,1.0,140.98423767089844,['b'],0.8693711757659912,a,96.0
lattice,98,v,img/target_5.png,1,1,0.05000000074505806,1.0,141.95111083984375,['v'],0.8139410018920898,a,97.0
lattice,99,r,img/target_4.png,1,9,0.05000000074505806,1.0,142.85360717773438,['r'],0.8795928955078125,a,98.0
lattice,100,b,img/target_6.png,1,0,0.05000000074505806,1.0,143.83470153808594,['b'],0.8979208469390869,a,99.0
lattice,101,r,img/target_4.png,1,9,0.05000000074505806,1.0,144.8179931640625,['r'],1.06766676902771,a,100.0
lattice,102,e,img/target_3.png,1,7,0.05000000074505806,1.0,145.98619079589844,['e'],1.1233770847320557,a,101.0
lattice,103,u,img/target_7.png,1,8,0.05000000074505806,1.0,147.20118713378906,['u'],0.820479154586792,a,102.0
lattice,104,b,img/target_6.png,1,0,0.05000000074505806,1.0,148.11822509765625,['b'],0.9343881607055664,a,103.0
lattice,105,r,img/target_4.png,1,9,0.05000000074505806,1.0,149.15184020996094,['r'],0.7573509216308594,a,104.0
lattice,106,e,img/target_3.png,1,7,0.05000000074505806,1.0,150.0038604736328,['e'],1.008944034576416,a,105.0
lattice,107,r,img/target_4.png,1,9,0.05000000074505806,1.0,151.1048583984375,['r'],0.8362789154052734,a,106.0
lattice,108,e,img/target_3.png,1,7,0.05000000074505806,1.0,152.03756713867188,['e'],1.3756251335144043,a,107.0
lattice,109,r,img/target_4.png,1,9,0.05000000074505806,1.0,153.50338745117188,['r'],0.8209929466247559,a,108.0
lattice,110,e,img/target_3.png,1,7,0.05000000074505806,1.0,154.4204559326172,['e'],1.0089161396026611,a,109.0
lattice,111,r,img/target_4.png,1,9,0.05000000074505806,1.0,155.5223846435547,['r'],0.9946250915527344,a,110.0
lattice,112,v,img/target_5.png,1,1,0.05000000074505806,1.0,156.6212921142578,['v'],1.0077650547027588,a,111.0
lattice,113,q,img/target_1.png,1,2,0.05000000074505806,1.0,157.71966552734375,['q'],0.8614659309387207,a,112.0
lattice,114,b,img/target_6.png,1,0,0.05000000074505806,1.0,158.66842651367188,['b'],1.215900182723999,a,113.0
lattice,115,r,img/target_4.png,1,9,0.05000000074505806,1.0,159.9689178466797,['r'],0.7641189098358154,a,114.0
lattice,116,u,img/target_7.png,1,8,0.05000000074505806,1.0,160.8363037109375,['u'],0.8399679660797119,a,115.0
lattice,117,e,img/target_3.png,1,7,0.05000000074505806,1.0,161.76974487304688,['e'],1.1874549388885498,a,116.0
lattice,118,r,img/target_4.png,1,9,0.05000000074505806,1.0,163.0532989501953,['r'],0.9826970100402832,a,117.0
lattice,119,b,img/target_6.png,1,0,0.05000000074505806,1.0,164.13648986816406,['b'],0.6274919509887695,a,118.0
lattice,120,q,img/target_1.png,1,2,0.05000000074505806,1.0,164.85240173339844,['q'],0.7126610279083252,a,119.0
lattice,121,v,img/target_5.png,1,1,0.05000000074505806,1.0,165.65310668945312,['v'],0.9670798778533936,a,120.0
lattice,122,q,img/target_1.png,1,2,0.05000000074505806,1.0,166.72174072265625,['q'],0.810157060623169,a,121.0
lattice,123,w,img/target_2.png,1,4,0.05000000074505806,1.0,167.622802734375,['w'],1.0621931552886963,a,122.0
lattice,124,o,img/target_9.png,1,3,0.05000000074505806,1.0,168.7877655029297,['o'],1.2165131568908691,a,123.0
lattice,125,v,img/target_5.png,1,1,0.05000000074505806,1.0,170.10385131835938,['v'],0.8846869468688965,a,124.0
lattice,126,r,img/target_4.png,1,9,0.05000000074505806,1.0,171.08737182617188,['r'],0.7332949638366699,a,125.0
lattice,127,v,img/target_5.png,1,1,0.05000000074505806,1.0,171.9205780029297,['v'],0.8200778961181641,a,126.0
lattice,128,q,img/target_1.png,1,2,0.05000000074505806,1.0,172.83970642089844,['q'],0.8689918518066406,a,127.0
lattice,129,b,img/target_6.png,1,0,0.05000000074505806,1.0,173.8040771484375,['b'],0.7995970249176025,a,128.0
lattice,130,q,img/target_1.png,1,2,0.05000000074505806,1.0,174.70480346679688,['q'],0.8591060638427734,a,129.0
lattice,131,o,img/target_9.png,1,3,0.05000000074505806,1.0,175.65518188476562,['o'],1.2766320705413818,a,130.0
lattice,132,q,img/target_1.png,1,2,0.05000000074505806,1.0,177.02447509765625,['q'],1.1317360401153564,a,131.0
lattice,133,w,img/target_2.png,1,4,0.05000000074505806,1.0,178.25662231445312,['w'],1.114858865737915,a,132.0
lattice,134,q,img/target_1.png,1,2,0.05000000074505806,0.0,179.47171020507812,['q'],2.0517330169677734,a,133.0
lattice,135,v,img/target_5.png,1,1,0.05000000074505806,1.0,181.6060028076172,['v'],1.0377159118652344,a,134.0
lattice,136,r,img/target_4.png,1,9,0.05000000074505806,1.0,182.7398223876953,['r'],0.6473608016967773,a,135.0
lattice,137,u,img/target_7.png,1,8,0.05000000074505806,1.0,183.4715118408203,['u'],1.3159360885620117,a,136.0
lattice,138,e,img/target_3.png,1,7,0.05000000074505806,1.0,184.88865661621094,['e'],1.4427289962768555,a,137.0
lattice,139,i,img/target_8.png,1,5,0.05000000074505806,1.0,186.4234619140625,['i'],1.6117489337921143,a,138.0
lattice,140,w,img/target_2.png,1,4,0.05000000074505806,1.0,188.12464904785156,['w'],1.0705409049987793,a,139.0
lattice,141,i,img/target_8.png,1,5,0.05000000074505806,0.0,189.28817749023438,['i'],2.186992883682251,a,140.0
lattice,142,w,img/target_2.png,1,4,0.05000000074505806,1.0,191.55618286132812,['w'],0.8476440906524658,a,141.0
lattice,143,q,img/target_1.png,1,2,0.05000000074505806,1.0,192.50772094726562,['q'],0.7520909309387207,a,142.0
lattice,144,o,img/target_9.png,1,3,0.05000000074505806,1.0,193.35597229003906,['o'],1.127161979675293,a,143.0
lattice,145,w,img/target_2.png,1,4,0.05000000074505806,1.0,194.5729217529297,['w'],0.703071117401123,a,144.0
lattice,146,q,img/target_1.png,1,2,0.05000000074505806,1.0,195.3729705810547,['q'],0.7822589874267578,a,145.0
lattice,147,w,img/target_2.png,1,4,0.05000000074505806,1.0,196.2554168701172,['w'],0.76361083984375,a,146.0
lattice,148,p,img/target_10.png,1,6,0.05000000074505806,0.0,197.10621643066406,['p'],2.144469976425171,a,147.0
lattice,149,u,img/target_7.png,1,8,0.05000000074505806,1.0,199.32321166992188,['u'],1.3116929531097412,a,148.0
lattice,150,e,img/target_3.png,1,7,0.05000000074505806,1.0,200.72303771972656,['e'],1.2159459590911865,a,149.0
lattice,151,i,img/target_8.png,1,5,0.05000000074505806,1.0,202.040283203125,['i'],1.178468942642212,a,150.0
lattice,152,o,img/target_9.png,1,3,0.05000000074505806,1.0,203.31028747558594,['o'],0.9645328521728516,a,151.0
lattice,153,v,img/target_5.png,1,1,0.05000000074505806,1.0,204.37283325195312,['v'],0.854719877243042,a,152.0
lattice,154,b,img/target_6.png,1,0,0.05000000074505806,1.0,205.32388305664062,['b'],1.214905023574829,a,153.0
lattice,155,v,img/target_5.png,1,1,0.05000000074505806,1.0,206.6234588623047,['v'],1.0109939575195312,a,154.0
lattice,156,r,img/target_4.png,1,9,0.05000000074505806,1.0,207.72447204589844,['r'],0.718271017074585,a,155.0
lattice,157,e,img/target_3.png,1,7,0.05000000074505806,1.0,208.54364013671875,['e'],0.7789750099182129,a,156.0
lattice,158,r,img/target_4.png,1,9,0.05000000074505806,1.0,209.42506408691406,['r'],0.8181869983673096,a,157.0
lattice,159,b,img/target_6.png,1,0,0.05000000074505806,1.0,210.3410186767578,['b'],0.9972169399261475,a,158.0
lattice,160,q,img/target_1.png,1,2,0.05000000074505806,1.0,211.42449951171875,['q'],0.6339130401611328,a,159.0
lattice,161,b,img/target_6.png,1,0,0.05000000074505806,1.0,212.15988159179688,['b'],1.3708879947662354,a,160.0
lattice,162,u,img/target_7.png,1,8,0.05000000074505806,1.0,213.62451171875,['u'],1.090188980102539,a,161.0
lattice,163,p,img/target_10.png,1,6,0.05000000074505806,1.0,214.80877685546875,['p'],0.8981359004974365,a,162.0
lattice,164,w,img/target_2.png,1,4,0.05000000074505806,1.0,215.8087615966797,['w'],0.8815069198608398,a,163.0
lattice,165,i,img/target_8.png,1,5,0.05000000074505806,1.0,216.7945556640625,['i'],2.27976393699646,a,164.0
lattice,166,e,img/target_3.png,1,7,0.05000000074505806,0.0,219.17462158203125,['e'],1.7554960250854492,a,165.0
lattice,167,u,img/target_7.png,1,8,0.05000000074505806,1.0,221.0113525390625,['u'],0.9185700416564941,a,166.0
lattice,168,p,img/target_10.png,1,6,0.05000000074505806,1.0,222.02468872070312,['p'],0.7464869022369385,a,167.0
lattice,169,e,img/target_3.png,1,7,0.05000000074505806,1.0,222.8590850830078,['e'],1.6156671047210693,a,168.0
lattice,170,i,img/target_8.png,1,5,0.05000000074505806,1.0,224.57586669921875,['i'],1.3701119422912598,a,169.0
lattice,171,o,img/target_9.png,1,3,0.05000000074505806,1.0,226.0424346923828,['o'],0.864293098449707,a,170.0
lattice,172,v,img/target_5.png,1,1,0.05000000074505806,1.0,226.9923858642578,['v'],0.9454197883605957,a,171.0
lattice,173,r,img/target_4.png,1,9,0.05000000074505806,1.0,228.0264129638672,['r'],0.7766549587249756,a,172.0
lattice,174,u,img/target_7.png,1,8,0.05000000074505806,1.0,228.89224243164062,['u'],1.5175011157989502,a,173.0
lattice,175,p,img/target_10.png,1,6,0.05000000074505806,1.0,230.50973510742188,['p'],1.4851181507110596,a,174.0
lattice,176,u,img/target_7.png,1,8,0.05000000074505806,1.0,232.0931396484375,['u'],0.7173128128051758,a,175.0
lattice,177,b,img/target_6.png,1,0,0.05000000074505806,1.0,232.90997314453125,['b'],0.7884049415588379,a,176.0
lattice,178,u,img/target_7.png,1,8,0.05000000074505806,1.0,233.7922821044922,['u'],1.1613550186157227,a,177.0
lattice,179,e,img/target_3.png,1,7,0.05000000074505806,1.0,235.04441833496094,['e'],1.0614118576049805,a,178.0
lattice,180,p,img/target_10.png,1,6,0.05000000074505806,1.0,236.19517517089844,['p'],0.8553018569946289,a,179.0
lattice,181,i,img/target_8.png,1,5,0.05000000074505806,1.0,237.14712524414062,['i'],0.8553850650787354,a,180.0
lattice,182,o,img/target_9.png,1,3,0.05000000074505806,1.0,238.0943603515625,['o'],1.355130910873413,a,181.0
lattice,183,v,img/target_5.png,1,1,0.05000000074505806,1.0,239.5435791015625,['v'],1.0430529117584229,a,182.0
lattice,184,b,img/target_6.png,1,0,0.05000000074505806,1.0,240.67916870117188,['b'],0.9873180389404297,a,183.0
lattice,185,u,img/target_7.png,1,8,0.05000000074505806,1.0,241.76028442382812,['u'],0.8492939472198486,a,184.0
lattice,186,e,img/target_3.png,1,7,0.05000000074505806,1.0,242.71327209472656,['e'],0.8891491889953613,a,185.0
lattice,187,p,img/target_10.png,1,6,0.05000000074505806,1.0,243.69580078125,['p'],0.761624813079834,a,186.0
lattice,188,e,img/target_3.png,1,7,0.05000000074505806,1.0,244.5438995361328,['e'],1.057654857635498,a,187.0
lattice,189,p,img/target_10.png,1,6,0.05000000074505806,1.0,245.69662475585938,['p'],0.8488390445709229,a,188.0
lattice,190,u,img/target_7.png,1,8,0.05000000074505806,1.0,246.646728515625,['u'],0.7712969779968262,a,189.0
lattice,191,b,img/target_6.png,1,0,0.05000000074505806,1.0,247.51370239257812,['b'],0.7686049938201904,a,190.0
lattice,192,u,img/target_7.png,1,8,0.05000000074505806,1.0,248.37835693359375,['u'],1.079448938369751,a,191.0
lattice,193,p,img/target_10.png,1,6,0.05000000074505806,1.0,249.54750061035156,['p'],0.7585570812225342,a,192.0
lattice,194,i,img/target_8.png,1,5,0.05000000074505806,1.0,250.39517211914062,['i'],1.1340909004211426,a,193.0
lattice,195,o,img/target_9.png,1,3,0.05000000074505806,1.0,251.63075256347656,['o'],1.651249885559082,a,194.0
lattice,196,v,img/target_5.png,1,1,0.05000000074505806,1.0,253.38177490234375,['v'],1.2511670589447021,a,195.0
lattice,197,q,img/target_1.png,1,2,0.05000000074505806,1.0,254.72979736328125,['q'],0.7523188591003418,a,196.0
lattice,198,w,img/target_2.png,1,4,0.05000000074505806,1.0,255.578369140625,['w'],2.686511993408203,a,197.0
lattice,199,p,img/target_10.png,1,6,0.05000000074505806,1.0,258.3620300292969,['p'],1.2786798477172852,a,198.0
lattice,200,w,img/target_2.png,1,4,0.05000000074505806,1.0,259.7287292480469,['w'],0.8651561737060547,a,199.0
lattice,201,q,img/target_1.png,1,2,0.05000000074505806,1.0,260.695556640625,['q'],0.6653339862823486,a,200.0
lattice,202,b,img/target_6.png,1,0,0.05000000074505806,1.0,261.4458923339844,['b'],0.9239270687103271,a,201.0
lattice,203,r,img/target_4.png,1,9,0.05000000074505806,1.0,262.4640197753906,['r'],1.192662000656128,a,202.0
lattice,204,u,img/target_7.png,1,8,0.05000000074505806,1.0,263.74578857421875,['u'],0.82271409034729,a,203.0
lattice,205,p,img/target_10.png,1,6,0.05000000074505806,1.0,264.6620178222656,['p'],0.7711679935455322,a,204.0
lattice,206,e,img/target_3.png,1,7,0.05000000074505806,1.0,265.53240966796875,['e'],1.3170490264892578,a,205.0
lattice,207,i,img/target_8.png,1,5,0.05000000074505806,0.0,266.948486328125,['i'],1.7401340007781982,a,206.0
lattice,208,w,img/target_2.png,1,4,0.05000000074505806,1.0,268.7637023925781,['w'],1.29361891746521,a,207.0
lattice,209,q,img/target_1.png,1,2,0.05000000074505806,1.0,270.1470642089844,['q'],0.7256758213043213,a,208.0
lattice,210,w,img/target_2.png,1,4,0.05000000074505806,1.0,270.9662780761719,['w'],0.930124044418335,a,209.0
lattice,211,q,img/target_1.png,1,2,0.05000000074505806,1.0,271.9997863769531,['q'],0.7206389904022217,a,210.0
lattice,212,b,img/target_6.png,1,0,0.05000000074505806,1.0,272.8170166015625,['b'],1.3751511573791504,a,211.0
lattice,213,q,img/target_1.png,1,2,0.05000000074505806,1.0,274.28143310546875,['q'],0.695044994354248,a,212.0
lattice,214,w,img/target_2.png,1,4,0.05000000074505806,1.0,275.06634521484375,['w'],0.9580879211425781,a,213.0
lattice,215,o,img/target_9.png,1,3,0.05000000074505806,1.0,276.1174011230469,['o'],1.1709048748016357,a,214.0
lattice,216,q,img/target_1.png,1,2,0.05000000074505806,1.0,277.3836975097656,['q'],0.7692749500274658,a,215.0
lattice,217,o,img/target_9.png,1,3,0.05000000074505806,1.0,278.2480773925781,['o'],1.0891101360321045,a,216.0
lattice,218,v,img/target_5.png,1,1,0.05000000074505806,1.0,279.4311218261719,['v'],0.9459929466247559,a,217.0
lattice,219,b,img/target_6.png,1,0,0.05000000074505806,1.0,280.48126220703125,['b'],0.9267048835754395,a,218.0
lattice,220,v,img/target_5.png,1,1,0.05000000074505806,1.0,281.4980163574219,['v'],1.0540869235992432,a,219.0
lattice,221,q,img/target_1.png,1,2,0.05000000074505806,1.0,282.6482238769531,['q'],0.6247789859771729,a,220.0
lattice,222,o,img/target_9.png,1,3,0.05000000074505806,1.0,283.3651428222656,['o'],1.1230518817901611,a,221.0
lattice,223,q,img/target_1.png,1,2,0.05000000074505806,1.0,284.5814514160156,['q'],0.7305757999420166,a,222.0
lattice,224,o,img/target_9.png,1,3,0.05000000074505806,1.0,285.3983154296875,['o'],1.3698451519012451,a,223.0
lattice,225,q,img/target_1.png,1,2,0.05000000074505806,1.0,286.86444091796875,['q'],0.6961719989776611,a,224.0
lattice,226,v,img/target_5.png,1,1,0.05000000074505806,1.0,287.6487731933594,['v'],0.7197380065917969,a,225.0
lattice,227,q,img/target_1.png,1,2,0.05000000074505806,1.0,288.46533203125,['q'],1.2147178649902344,a,226.0
lattice,228,w,img/target_2.png,1,4,0.05000000074505806,1.0,289.765380859375,['w'],0.7953360080718994,a,227.0
lattice,229,o,img/target_9.png,1,3,0.05000000074505806,1.0,290.6485900878906,['o'],0.8233299255371094,a,228.0
lattice,230,v,img/target_5.png,1,1,0.05000000074505806,1.0,291.56561279296875,['v'],0.7699069976806641,a,229.0
lattice,231,o,img/target_9.png,1,3,0.05000000074505806,1.0,292.43231201171875,['o'],0.879349946975708,a,230.0
lattice,232,q,img/target_1.png,1,2,0.05000000074505806,1.0,293.3984680175781,['q'],0.8335609436035156,a,231.0
lattice,233,v,img/target_5.png,1,1,0.05000000074505806,0.0,294.3322448730469,['v'],1.539231777191162,a,232.0
lattice,234,r,img/target_4.png,1,9,0.05000000074505806,1.0,295.94842529296875,['r'],1.0589418411254883,a,233.0
lattice,235,b,img/target_6.png,1,0,0.05000000074505806,1.0,297.0994873046875,['b'],1.5080649852752686,a,234.0
lattice,236,q,img/target_1.png,1,2,0.05000000074505806,1.0,298.6989440917969,['q'],0.6613490581512451,a,235.0
lattice,237,v,img/target_5.png,1,1,0.05000000074505806,1.0,299.4491882324219,['v'],1.1510770320892334,a,236.0
lattice,238,b,img/target_6.png,1,0,0.05000000074505806,0.0,300.6986083984375,['b'],1.405371904373169,a,237.0
lattice,239,v,img/target_5.png,1,1,0.05000000074505806,1.0,302.1824951171875,['v'],0.745413064956665,a,238.0
lattice,240,b,img/target_6.png,1,0,0.05000000074505806,1.0,303.01654052734375,['b'],0.6547582149505615,a,239.0
lattice,241,v,img/target_5.png,1,1,0.05000000074505806,1.0,303.7662048339844,['v'],0.5530920028686523,a,240.0
lattice,242,q,img/target_1.png,1,2,0.05000000074505806,1.0,304.4169921875,['q'],0.6472470760345459,a,241.0
lattice,243,w,img/target_2.png,1,4,0.05000000074505806,1.0,305.16680908203125,['w'],0.8328890800476074,a,242.0
lattice,244,o,img/target_9.png,1,3,0.05000000074505806,1.0,306.1030578613281,['o'],1.024468183517456,a,243.0
lattice,245,v,img/target_5.png,1,1,0.05000000074505806,1.0,307.2161560058594,['v'],0.8149559497833252,a,244.0
lattice,246,b,img/target_6.png,1,0,0.05000000074505806,1.0,308.12054443359375,['b'],0.8631041049957275,a,245.0
lattice,247,q,img/target_1.png,1,2,0.05000000074505806,1.0,309.0830383300781,['q'],0.6930520534515381,a,246.0
lattice,248,o,img/target_9.png,1,3,0.05000000074505806,1.0,309.86663818359375,['o'],1.108271837234497,a,247.0
lattice,249,q,img/target_1.png,1,2,0.05000000074505806,1.0,311.0671081542969,['q'],0.804110050201416,a,248.0
lattice,250,w,img/target_2.png,1,4,0.05000000074505806,1.0,311.9698791503906,['w'],1.0609641075134277,a,249.0
lattice,251,q,img/target_1.png,1,2,0.05000000074505806,1.0,530.8326416015625,['q'],6.167342185974121,a,250.0
lattice,252,o,img/target_9.png,1,3,0.05000000074505806,0.0,537.0892333984375,['o'],2.1744229793548584,a,251.0
lattice,253,v,img/target_5.png,1,1,0.05000000074505806,1.0,539.339599609375,['v'],0.9407229423522949,a,252.0
lattice,254,r,img/target_4.png,1,9,0.05000000074505806,1.0,540.3726806640625,['r'],1.9867768287658691,a,253.0
lattice,255,u,img/target_7.png,1,8,0.05000000074505806,1.0,542.455810546875,['u'],0.6481301784515381,a,254.0
lattice,256,r,img/target_4.png,1,9,0.05000000074505806,1.0,543.2081909179688,['r'],0.8394370079040527,a,255.0
lattice,257,b,img/target_6.png,1,0,0.05000000074505806,1.0,544.139404296875,['b'],0.7315371036529541,a,256.0
lattice,258,q,img/target_1.png,1,2,0.05000000074505806,1.0,544.95703125,['q'],0.9871220588684082,a,257.0
lattice,259,v,img/target_5.png,1,1,0.05000000074505806,1.0,546.0399780273438,['v'],0.7830569744110107,a,258.0
lattice,260,q,img/target_1.png,1,2,0.05000000074505806,1.0,546.9230346679688,['q'],0.5569119453430176,a,259.0
lattice,261,o,img/target_9.png,1,3,0.05000000074505806,1.0,547.5724487304688,['o'],0.7946810722351074,a,260.0
lattice,262,w,img/target_2.png,1,4,0.05000000074505806,1.0,548.45654296875,['w'],1.3182930946350098,a,261.0
lattice,263,p,img/target_10.png,1,6,0.05000000074505806,1.0,549.8734130859375,['p'],1.2220699787139893,a,262.0
lattice,264,e,img/target_3.png,1,7,0.05000000074505806,0.0,551.189453125,['e'],1.8172459602355957,a,263.0
lattice,265,p,img/target_10.png,1,6,0.05000000074505806,1.0,553.089599609375,['p'],1.509843111038208,a,264.0
lattice,266,i,img/target_8.png,1,5,0.05000000074505806,1.0,554.6905517578125,['i'],2.163999080657959,a,265.0
lattice,267,o,img/target_9.png,1,3,0.05000000074505806,1.0,556.941162109375,['o'],1.2263288497924805,a,266.0
lattice,268,v,img/target_5.png,1,1,0.05000000074505806,1.0,558.2576293945312,['v'],1.1650190353393555,a,267.0
lattice,269,q,img/target_1.png,1,2,0.05000000074505806,1.0,559.5078125,['q'],0.6426558494567871,a,268.0
lattice,270,b,img/target_6.png,1,0,0.05000000074505806,1.0,560.240234375,['b'],2.2540321350097656,a,269.0
lattice,271,q,img/target_1.png,1,2,0.05000000074505806,1.0,562.5914306640625,['q'],0.6710131168365479,a,270.0
lattice,272,w,img/target_2.png,1,4,0.05000000074505806,1.0,563.3615112304688,['w'],0.8778870105743408,a,271.0
lattice,273,q,img/target_1.png,1,2,0.05000000074505806,1.0,564.3446044921875,['q'],5.32614803314209,a,272.0
lattice,274,o,img/target_9.png,1,3,0.05000000074505806,1.0,569.7623291015625,['o'],1.0128519535064697,a,273.0
lattice,275,v,img/target_5.png,1,1,0.05000000074505806,1.0,570.8746337890625,['v'],1.036262035369873,a,274.0
lattice,276,r,img/target_4.png,1,9,0.05000000074505806,1.0,572.0119018554688,['r'],2.0190489292144775,a,275.0
lattice,277,e,img/target_3.png,1,7,0.05000000074505806,1.0,574.125732421875,['e'],1.1128509044647217,a,276.0
lattice,278,p,img/target_10.png,1,6,0.05000000074505806,0.0,575.328857421875,['p'],1.7016518115997314,a,277.0
lattice,279,u,img/target_7.png,1,8,0.05000000074505806,1.0,577.113037109375,['u'],0.9010019302368164,a,278.0
lattice,280,b,img/target_6.png,1,0,0.05000000074505806,1.0,578.1094970703125,['b'],0.7925410270690918,a,279.0
lattice,281,q,img/target_1.png,1,2,0.05000000074505806,1.0,578.9931030273438,['q'],0.6052091121673584,a,280.0
lattice,282,b,img/target_6.png,1,0,0.05000000074505806,1.0,579.6922607421875,['b'],1.0334830284118652,a,281.0
lattice,283,u,img/target_7.png,1,8,0.05000000074505806,1.0,580.8267211914062,['u'],0.8282201290130615,a,282.0
lattice,284,b,img/target_6.png,1,0,0.05000000074505806,1.0,581.7425537109375,['b'],1.1592140197753906,a,283.0
lattice,285,q,img/target_1.png,1,2,0.05000000074505806,1.0,582.9931640625,['q'],0.6526310443878174,a,284.0
lattice,286,b,img/target_6.png,1,0,0.05000000074505806,1.0,583.7432861328125,['b'],1.0863709449768066,a,285.0
lattice,287,u,img/target_7.png,1,8,0.05000000074505806,1.0,584.9259033203125,['u'],0.8088541030883789,a,286.0
lattice,288,p,img/target_10.png,1,6,0.05000000074505806,1.0,585.8267211914062,['p'],0.6992731094360352,a,287.0
lattice,289,w,img/target_2.png,1,4,0.05000000074505806,1.0,586.6279907226562,['w'],0.8661348819732666,a,288.0
lattice,290,q,img/target_1.png,1,2,0.05000000074505806,1.0,587.5946044921875,['q'],0.8117680549621582,a,289.0
lattice,291,b,img/target_6.png,1,0,0.05000000074505806,1.0,588.4948120117188,['b'],0.934844970703125,a,290.0
lattice,292,r,img/target_4.png,1,9,0.05000000074505806,1.0,589.5276489257812,['r'],1.0221779346466064,a,291.0
lattice,293,v,img/target_5.png,1,1,0.05000000074505806,1.0,590.6436157226562,['v'],0.8671360015869141,a,292.0
lattice,294,r,img/target_4.png,1,9,0.05000000074505806,1.0,591.6109619140625,['r'],0.9144771099090576,a,293.0
lattice,295,u,img/target_7.png,1,8,0.05000000074505806,1.0,592.6117553710938,['u'],0.6985840797424316,a,294.0
lattice,296,b,img/target_6.png,1,0,0.05000000074505806,1.0,593.4141235351562,['b'],1.0470821857452393,a,295.0
lattice,297,v,img/target_5.png,1,1,0.05000000074505806,1.0,594.5613403320312,['v'],0.9159870147705078,a,296.0
lattice,298,b,img/target_6.png,1,0,0.05000000074505806,1.0,595.5800170898438,['b'],0.4891800880432129,a,297.0
lattice,299,v,img/target_5.png,1,1,0.05000000074505806,1.0,596.1616821289062,['v'],0.4841790199279785,a,298.0
lattice,300,r,img/target_4.png,1,9,0.05000000074505806,1.0,596.7445068359375,['r'],0.8136308193206787,a,299.0
lattice,301,e,img/target_3.png,1,7,0.05000000074505806,1.0,597.6461791992188,['e'],0.783195972442627,a,300.0
lattice,302,r,img/target_4.png,1,9,0.05000000074505806,1.0,598.5291748046875,['r'],1.028198003768921,a,301.0
lattice,303,e,img/target_3.png,1,7,0.05000000074505806,1.0,599.64501953125,['e'],0.8960850238800049,a,302.0
lattice,304,p,img/target_10.png,1,6,0.05000000074505806,1.0,600.627685546875,['p'],1.1780381202697754,a,303.0
lattice,305,e,img/target_3.png,1,7,0.05000000074505806,1.0,601.8964233398438,['e'],1.2610390186309814,a,304.0
lattice,306,u,img/target_7.png,1,8,0.05000000074505806,1.0,603.2487182617188,['u'],0.8606431484222412,a,305.0
lattice,307,e,img/target_3.png,1,7,0.05000000074505806,1.0,604.196044921875,['e'],0.8568899631500244,a,306.0
lattice,308,p,img/target_10.png,1,6,0.05000000074505806,1.0,605.1455078125,['p'],0.8512909412384033,a,307.0
lattice,309,i,img/target_8.png,1,5,0.05000000074505806,1.0,606.0946655273438,['i'],1.462496042251587,a,308.0
lattice,310,w,img/target_2.png,1,4,0.05000000074505806,1.0,607.649169921875,['w'],1.9637181758880615,a,309.0
lattice,311,i,img/target_8.png,1,5,0.05000000074505806,1.0,609.712646484375,['i'],1.164470911026001,a,310.0
lattice,312,p,img/target_10.png,1,6,0.05000000074505806,1.0,610.9791259765625,['p'],0.7866239547729492,a,311.0
lattice,313,i,img/target_8.png,1,5,0.05000000074505806,1.0,611.8626098632812,['i'],0.9982070922851562,a,312.0
lattice,314,p,img/target_10.png,1,6,0.05000000074505806,1.0,612.945556640625,['p'],1.1151659488677979,a,313.0
lattice,315,e,img/target_3.png,1,7,0.05000000074505806,1.0,614.1467895507812,['e'],1.2658369541168213,a,314.0
lattice,316,p,img/target_10.png,1,6,0.05000000074505806,1.0,615.51220703125,['p'],1.020327091217041,a,315.0
lattice,317,i,img/target_8.png,1,5,0.05000000074505806,1.0,616.6300048828125,['i'],1.6705210208892822,a,316.0
lattice,318,o,img/target_9.png,1,3,0.05000000074505806,1.0,618.3958740234375,['o'],1.2405509948730469,a,317.0
lattice,319,v,img/target_5.png,1,1,0.05000000074505806,1.0,619.7303466796875,['v'],1.3061230182647705,a,318.0
lattice,320,o,img/target_9.png,1,3,0.05000000074505806,1.0,621.1303100585938,['o'],1.2581150531768799,a,319.0
lattice,321,v,img/target_5.png,1,1,0.05000000074505806,1.0,622.48046875,['v'],1.2997868061065674,a,320.0
lattice,322,o,img/target_9.png,1,3,0.05000000074505806,1.0,623.8800048828125,['o'],1.5482439994812012,a,321.0
lattice,323,w,img/target_2.png,1,4,0.05000000074505806,1.0,625.5137939453125,['w'],1.1383090019226074,a,322.0
lattice,324,q,img/target_1.png,1,2,0.05000000074505806,1.0,626.7476806640625,['q'],0.7138497829437256,a,323.0
lattice,325,w,img/target_2.png,1,4,0.05000000074505806,1.0,627.564453125,['w'],0.6557390689849854,a,324.0
lattice,326,o,img/target_9.png,1,3,0.05000000074505806,1.0,628.3142700195312,['o'],0.7468428611755371,a,325.0
lattice,327,w,img/target_2.png,1,4,0.05000000074505806,1.0,629.1642456054688,['w'],0.8088951110839844,a,326.0
lattice,328,i,img/target_8.png,1,5,0.05000000074505806,1.0,630.0637817382812,['i'],0.7562229633331299,a,327.0
lattice,329,w,img/target_2.png,1,4,0.05000000074505806,1.0,630.9141845703125,['w'],0.7865447998046875,a,328.0
lattice,330,i,img/target_8.png,1,5,0.05000000074505806,1.0,631.7977294921875,['i'],1.1905529499053955,a,329.0
lattice,331,o,img/target_9.png,1,3,0.05000000074505806,1.0,633.080810546875,['o'],0.7324881553649902,a,330.0
lattice,332,q,img/target_1.png,1,2,0.05000000074505806,1.0,633.914794921875,['q'],0.8892149925231934,a,331.0
lattice,333,b,img/target_6.png,1,0,0.05000000074505806,1.0,634.8983764648438,['b'],0.9384760856628418,a,332.0
lattice,334,u,img/target_7.png,1,8,0.05000000074505806,0.0,635.9310302734375,['u'],1.3852691650390625,a,333.0
lattice,335,r,img/target_4.png,1,9,0.05000000074505806,1.0,637.4006958007812,['r'],0.771604061126709,a,334.0
lattice,336,u,img/target_7.png,1,8,0.05000000074505806,0.0,638.265625,['u'],1.7948229312896729,a,335.0
lattice,337,r,img/target_4.png,1,9,0.05000000074505806,1.0,640.1314697265625,['r'],0.7454521656036377,a,336.0
lattice,338,b,img/target_6.png,1,0,0.05000000074505806,1.0,640.9651489257812,['b'],0.8468079566955566,a,337.0
lattice,339,q,img/target_1.png,1,2,0.05000000074505806,1.0,641.8980712890625,['q'],0.626183032989502,a,338.0
lattice,340,w,img/target_2.png,1,4,0.05000000074505806,1.0,642.615478515625,['w'],0.8046689033508301,a,339.0
lattice,341,o,img/target_9.png,1,3,0.05000000074505806,1.0,643.5176391601562,['o'],0.9268519878387451,a,340.0
lattice,342,w,img/target_2.png,1,4,0.05000000074505806,1.0,644.5336303710938,['w'],0.8227369785308838,a,341.0
lattice,343,o,img/target_9.png,1,3,0.05000000074505806,1.0,645.4502563476562,['o'],1.105463981628418,a,342.0
lattice,344,q,img/target_1.png,1,2,0.05000000074505806,1.0,646.64892578125,['q'],0.7873170375823975,a,343.0
lattice,345,v,img/target_5.png,1,1,0.05000000074505806,1.0,647.5365600585938,['v'],0.875478982925415,a,344.0
lattice,346,o,img/target_9.png,1,3,0.05000000074505806,1.0,648.500732421875,['o'],0.9348878860473633,a,345.0
lattice,347,v,img/target_5.png,1,1,0.05000000074505806,1.0,649.5337524414062,['v'],0.9817039966583252,a,346.0
lattice,348,b,img/target_6.png,1,0,0.05000000074505806,1.0,650.6162719726562,['b'],0.8278648853302002,a,347.0
lattice,349,r,img/target_4.png,1,9,0.05000000074505806,1.0,651.53271484375,['r'],0.7832632064819336,a,348.0
lattice,350,v,img/target_5.png,1,1,0.05000000074505806,1.0,652.416259765625,['v'],0.8833179473876953,a,349.0
lattice,351,b,img/target_6.png,1,0,0.05000000074505806,1.0,653.4032592773438,['b'],0.8081459999084473,a,350.0
lattice,352,u,img/target_7.png,1,8,0.05000000074505806,1.0,654.2991943359375,['u'],0.7682838439941406,a,351.0
lattice,353,p,img/target_10.png,1,6,0.05000000074505806,1.0,655.1676025390625,['p'],0.7317790985107422,a,352.0
lattice,354,i,img/target_8.png,1,5,0.05000000074505806,1.0,656.0001831054688,['i'],1.659600019454956,a,353.0
lattice,355,e,img/target_3.png,1,7,0.05000000074505806,0.0,657.7510986328125,['e'],1.6689260005950928,a,354.0
lattice,356,p,img/target_10.png,1,6,0.05000000074505806,1.0,659.5035400390625,['p'],1.0435791015625,a,355.0
lattice,357,u,img/target_7.png,1,8,0.05000000074505806,1.0,660.634765625,['u'],0.8404800891876221,a,356.0
lattice,358,b,img/target_6.png,1,0,0.05000000074505806,1.0,661.5672607421875,['b'],0.7157771587371826,a,357.0
lattice,359,r,img/target_4.png,1,9,0.05000000074505806,1.0,662.3844604492188,['r'],0.8903651237487793,a,358.0
lattice,360,v,img/target_5.png,1,1,0.05000000074505806,1.0,663.3675537109375,['v'],1.0513238906860352,a,359.0
lattice,361,r,img/target_4.png,1,9,0.05000000074505806,1.0,664.5173950195312,['r'],0.7654869556427002,a,360.0
lattice,362,v,img/target_5.png,1,1,0.05000000074505806,1.0,665.3680419921875,['v'],0.9547219276428223,a,361.0
lattice,363,b,img/target_6.png,1,0,0.05000000074505806,1.0,666.41796875,['b'],0.697329044342041,a,362.0
lattice,364,r,img/target_4.png,1,9,0.05000000074505806,1.0,667.2005615234375,['r'],0.7944638729095459,a,363.0
lattice,365,b,img/target_6.png,1,0,0.05000000074505806,1.0,668.0859985351562,['b'],0.8212890625,a,364.0
lattice,366,q,img/target_1.png,1,2,0.05000000074505806,1.0,669.0015258789062,['q'],0.6337518692016602,a,365.0
lattice,367,w,img/target_2.png,1,4,0.05000000074505806,1.0,669.7352294921875,['w'],0.7239229679107666,a,366.0
lattice,368,o,img/target_9.png,1,3,0.05000000074505806,1.0,670.5518798828125,['o'],0.8599321842193604,a,367.0
lattice,369,i,img/target_8.png,1,5,0.05000000074505806,1.0,671.5025634765625,['i'],1.9169580936431885,a,368.0
lattice,370,w,img/target_2.png,1,4,0.05000000074505806,1.0,673.51904296875,['w'],0.8437190055847168,a,369.0
lattice,371,i,img/target_8.png,1,5,0.05000000074505806,1.0,674.452392578125,['i'],0.9342870712280273,a,370.0
lattice,372,e,img/target_3.png,1,7,0.05000000074505806,1.0,675.4882202148438,['e'],1.1867320537567139,a,371.0
lattice,373,u,img/target_7.png,1,8,0.05000000074505806,1.0,676.7703247070312,['u'],1.1281840801239014,a,372.0
lattice,374,b,img/target_6.png,1,0,0.05000000074505806,1.0,677.9850463867188,['b'],0.785412073135376,a,373.0
lattice,375,u,img/target_7.png,1,8,0.05000000074505806,1.0,678.869384765625,['u'],0.8535299301147461,a,374.0
lattice,376,b,img/target_6.png,1,0,0.05000000074505806,1.0,679.8187866210938,['b'],1.0796010494232178,a,375.0
lattice,377,r,img/target_4.png,1,9,0.05000000074505806,1.0,680.98583984375,['r'],0.7695088386535645,a,376.0
lattice,378,u,img/target_7.png,1,8,0.05000000074505806,1.0,681.8548583984375,['u'],0.7800180912017822,a,377.0
lattice,379,b,img/target_6.png,1,0,0.05000000074505806,1.0,682.7362670898438,['b'],0.7780101299285889,a,378.0
lattice,380,u,img/target_7.png,1,8,0.05000000074505806,1.0,683.6032104492188,['u'],0.7352249622344971,a,379.0
lattice,381,b,img/target_6.png,1,0,0.05000000074505806,1.0,684.4356079101562,['b'],0.6708869934082031,a,380.0
lattice,382,v,img/target_5.png,1,1,0.05000000074505806,1.0,685.2029418945312,['v'],0.8321750164031982,a,381.0
lattice,383,r,img/target_4.png,1,9,0.05000000074505806,1.0,686.1365356445312,['r'],0.6345899105072021,a,382.0
lattice,384,v,img/target_5.png,1,1,0.05000000074505806,0.0,686.8701782226562,['v'],1.7572309970855713,a,383.0
lattice,385,o,img/target_9.png,1,3,0.05000000074505806,1.0,688.7058715820312,['o'],0.9610681533813477,a,384.0
lattice,386,q,img/target_1.png,1,2,0.05000000074505806,1.0,689.7540283203125,['q'],0.6961240768432617,a,385.0
lattice,387,v,img/target_5.png,1,1,0.05000000074505806,0.0,690.5379028320312,['v'],1.2488658428192139,a,386.0
lattice,388,o,img/target_9.png,1,3,0.05000000074505806,1.0,691.8696899414062,['o'],1.0042870044708252,a,387.0
lattice,389,w,img/target_2.png,1,4,0.05000000074505806,1.0,692.9725952148438,['w'],0.8691630363464355,a,388.0
lattice,390,p,img/target_10.png,1,6,0.05000000074505806,1.0,693.9368286132812,['p'],0.7619709968566895,a,389.0
lattice,391,u,img/target_7.png,1,8,0.05000000074505806,1.0,694.8055419921875,['u'],0.9565489292144775,a,390.0
lattice,392,e,img/target_3.png,1,7,0.05000000074505806,1.0,695.8550415039062,['e'],0.8508601188659668,a,391.0
lattice,393,u,img/target_7.png,1,8,0.05000000074505806,1.0,696.8056640625,['u'],0.892132043838501,a,392.0
lattice,394,e,img/target_3.png,1,7,0.05000000074505806,1.0,697.7876586914062,['e'],0.7819890975952148,a,393.0
lattice,395,u,img/target_7.png,1,8,0.05000000074505806,1.0,698.6539306640625,['u'],0.7086148262023926,a,394.0
lattice,396,e,img/target_3.png,1,7,0.05000000074505806,1.0,699.4537963867188,['e'],0.9010019302368164,a,395.0
lattice,397,p,img/target_10.png,1,6,0.05000000074505806,1.0,700.45458984375,['p'],0.7310869693756104,a,396.0
lattice,398,w,img/target_2.png,1,4,0.05000000074505806,1.0,701.2706298828125,['w'],1.1550788879394531,a,397.0
lattice,399,i,img/target_8.png,1,5,0.05000000074505806,1.0,702.5213623046875,['i'],1.2643721103668213,a,398.0
lattice,400,o,img/target_9.png,1,3,0.05000000074505806,1.0,703.8713989257812,['o'],0.8981120586395264,a,399.0
lattice,401,q,img/target_1.png,1,2,0.05000000074505806,1.0,704.8553466796875,['q'],1.0502209663391113,a,400.0
lattice,402,b,img/target_6.png,1,0,0.05000000074505806,1.0,706.0051879882812,['b'],0.6123960018157959,a,401.0
lattice,403,q,img/target_1.png,1,2,0.05000000074505806,1.0,706.7054443359375,['q'],0.6009750366210938,a,402.0
lattice,404,v,img/target_5.png,1,1,0.05000000074505806,1.0,707.4049072265625,['v'],0.8925049304962158,a,403.0
lattice,405,q,img/target_1.png,1,2,0.05000000074505806,1.0,708.38818359375,['q'],0.5578491687774658,a,404.0
lattice,406,o,img/target_9.png,1,3,0.05000000074505806,1.0,709.0390014648438,['o'],0.7154049873352051,a,405.0
lattice,407,i,img/target_8.png,1,5,0.05000000074505806,1.0,709.85546875,['i'],0.7471199035644531,a,406.0
lattice,408,w,img/target_2.png,1,4,0.05000000074505806,1.0,710.7056274414062,['w'],0.7438290119171143,a,407.0
lattice,409,q,img/target_1.png,1,2,0.05000000074505806,1.0,711.5414428710938,['q'],0.7402958869934082,a,408.0
lattice,410,v,img/target_5.png,1,1,0.05000000074505806,1.0,712.3721313476562,['v'],0.9821178913116455,a,409.0
lattice,411,q,img/target_1.png,1,2,0.05000000074505806,1.0,713.4583740234375,['q'],0.8558089733123779,a,410.0
lattice,412,v,img/target_5.png,1,1,0.05000000074505806,1.0,714.4085693359375,['v'],1.6006720066070557,a,411.0
lattice,413,o,img/target_9.png,1,3,0.05000000074505806,1.0,716.1068115234375,['o'],0.9747469425201416,a,412.0
lattice,414,i,img/target_8.png,1,5,0.05000000074505806,1.0,717.1726684570312,['i'],0.8523859977722168,a,413.0
lattice,415,e,img/target_3.png,1,7,0.05000000074505806,1.0,718.1259765625,['e'],1.5316698551177979,a,414.0
lattice,416,r,img/target_4.png,1,9,0.05000000074505806,1.0,719.756103515625,['r'],1.084920883178711,a,415.0
lattice,417,v,img/target_5.png,1,1,0.05000000074505806,1.0,720.9398193359375,['v'],0.9971890449523926,a,416.0
lattice,418,b,img/target_6.png,1,0,0.05000000074505806,1.0,722.0234985351562,['b'],0.8584258556365967,a,417.0
lattice,419,v,img/target_5.png,1,1,0.05000000074505806,1.0,722.97314453125,['v'],0.6285579204559326,a,418.0
lattice,420,b,img/target_6.png,1,0,0.05000000074505806,1.0,723.6905517578125,['b'],0.8071470260620117,a,419.0
lattice,421,v,img/target_5.png,1,1,0.05000000074505806,1.0,724.5901489257812,['v'],0.4826838970184326,a,420.0
lattice,422,o,img/target_9.png,1,3,0.05000000074505806,1.0,725.173583984375,['o'],0.7561581134796143,a,421.0
lattice,423,i,img/target_8.png,1,5,0.05000000074505806,1.0,726.0232543945312,['i'],0.8814029693603516,a,422.0
lattice,424,e,img/target_3.png,1,7,0.05000000074505806,1.0,726.9903564453125,['e'],1.026366949081421,a,423.0
lattice,425,u,img/target_7.png,1,8,0.05000000074505806,1.0,728.1077270507812,['u'],0.7810969352722168,a,424.0
lattice,426,r,img/target_4.png,1,9,0.05000000074505806,1.0,728.9741821289062,['r'],0.8666069507598877,a,425.0
lattice,427,u,img/target_7.png,1,8,0.05000000074505806,1.0,729.9406127929688,['u'],0.8933711051940918,a,426.0
lattice,428,p,img/target_10.png,1,6,0.05000000074505806,1.0,730.9241943359375,['p'],1.0055179595947266,a,427.0
lattice,429,i,img/target_8.png,1,5,0.05000000074505806,0.0,732.024169921875,['i'],2.024542808532715,a,428.0
lattice,430,e,img/target_3.png,1,7,0.05000000074505806,1.0,734.1242065429688,['e'],1.2210559844970703,a,429.0
lattice,431,u,img/target_7.png,1,8,0.05000000074505806,1.0,735.440673828125,['u'],0.8490860462188721,a,430.0
lattice,432,p,img/target_10.png,1,6,0.05000000074505806,1.0,736.3902587890625,['p'],0.9542880058288574,a,431.0
lattice,433,i,img/target_8.png,1,5,0.05000000074505806,0.0,737.4413452148438,['i'],1.416076898574829,a,432.0
lattice,434,p,img/target_10.png,1,6,0.05000000074505806,1.0,738.9407348632812,['p'],0.7715160846710205,a,433.0
lattice,435,i,img/target_8.png,1,5,0.05000000074505806,1.0,739.8085327148438,['i'],0.8717708587646484,a,434.0
lattice,436,o,img/target_9.png,1,3,0.05000000074505806,1.0,740.7752685546875,['o'],2.280940055847168,a,435.0
lattice,437,v,img/target_5.png,1,1,0.05000000074505806,1.0,743.1419677734375,['v'],0.9951729774475098,a,436.0
lattice,438,q,img/target_1.png,1,2,0.05000000074505806,1.0,744.2247314453125,['q'],0.7993459701538086,a,437.0
lattice,439,v,img/target_5.png,1,1,0.05000000074505806,1.0,745.1093139648438,['v'],2.1388678550720215,a,438.0
lattice,440,r,img/target_4.png,1,9,0.05000000074505806,1.0,747.3425903320312,['r'],0.9535889625549316,a,439.0
lattice,441,v,img/target_5.png,1,1,0.05000000074505806,1.0,748.3926391601562,['v'],2.3761229515075684,a,440.0
lattice,442,b,img/target_6.png,1,0,0.05000000074505806,1.0,750.8595581054688,['b'],2.3172919750213623,a,441.0
lattice,443,q,img/target_1.png,1,2,0.05000000074505806,1.0,753.2764282226562,['q'],0.7877659797668457,a,442.0
lattice,444,v,img/target_5.png,1,1,0.05000000074505806,1.0,754.162841796875,['v'],0.7897632122039795,a,443.0
lattice,445,b,img/target_6.png,1,0,0.05000000074505806,0.0,755.0459594726562,['b'],1.8098881244659424,a,444.0
lattice,446,u,img/target_7.png,1,8,0.05000000074505806,1.0,756.9266967773438,['u'],0.961259126663208,a,445.0
lattice,447,r,img/target_4.png,1,9,0.05000000074505806,1.0,757.976806640625,['r'],0.7516520023345947,a,446.0
lattice,448,v,img/target_5.png,1,1,0.05000000074505806,1.0,758.8273315429688,['v'],0.8768081665039062,a,447.0
lattice,449,o,img/target_9.png,1,3,0.05000000074505806,1.0,759.7977294921875,['o'],0.8742139339447021,a,448.0
lattice,450,v,img/target_5.png,1,1,0.05000000074505806,1.0,760.7600708007812,['v'],0.9205009937286377,a,449.0
lattice,451,b,img/target_6.png,1,0,0.05000000074505806,1.0,761.7803955078125,['b'],0.9551920890808105,a,450.0
lattice,452,u,img/target_7.png,1,8,0.05000000074505806,1.0,762.8270263671875,['u'],0.8050730228424072,a,451.0
lattice,453,b,img/target_6.png,1,0,0.05000000074505806,1.0,763.7265014648438,['b'],0.9688820838928223,a,452.0
lattice,454,q,img/target_1.png,1,2,0.05000000074505806,1.0,764.7943725585938,['q'],0.70188307762146,a,453.0
lattice,455,b,img/target_6.png,1,0,0.05000000074505806,1.0,765.5969848632812,['b'],0.9305100440979004,a,454.0
lattice,456,u,img/target_7.png,1,8,0.05000000074505806,1.0,766.6275024414062,['u'],0.8682858943939209,a,455.0
lattice,457,p,img/target_10.png,1,6,0.05000000074505806,1.0,767.5974731445312,['p'],1.1221959590911865,a,456.0
lattice,458,e,img/target_3.png,1,7,0.05000000074505806,1.0,768.8114013671875,['e'],2.8759992122650146,a,457.0
lattice,459,r,img/target_4.png,1,9,0.05000000074505806,1.0,771.78173828125,['r'],0.9296860694885254,a,458.0
lattice,460,e,img/target_3.png,1,7,0.05000000074505806,1.0,772.8124389648438,['e'],0.732003927230835,a,459.0
lattice,461,p,img/target_10.png,1,6,0.05000000074505806,1.0,773.64794921875,['p'],0.7912960052490234,a,460.0
lattice,462,w,img/target_2.png,1,4,0.05000000074505806,1.0,774.5291748046875,['w'],1.1030230522155762,a,461.0
lattice,463,o,img/target_9.png,1,3,0.05000000074505806,1.0,775.7286376953125,['o'],0.8552830219268799,a,462.0
lattice,464,i,img/target_8.png,1,5,0.05000000074505806,1.0,776.68115234375,['i'],1.5660488605499268,a,463.0
lattice,465,o,img/target_9.png,1,3,0.05000000074505806,1.0,778.345458984375,['o'],1.0695509910583496,a,464.0
lattice,466,i,img/target_8.png,1,5,0.05000000074505806,1.0,779.5120239257812,['i'],0.9362900257110596,a,465.0
lattice,467,w,img/target_2.png,1,4,0.05000000074505806,1.0,780.545166015625,['w'],0.9099509716033936,a,466.0
lattice,468,i,img/target_8.png,1,5,0.05000000074505806,1.0,781.5460815429688,['i'],0.9654338359832764,a,467.0
lattice,469,e,img/target_3.png,1,7,0.05000000074505806,1.0,782.6151733398438,['e'],1.104362964630127,a,468.0
lattice,470,p,img/target_10.png,1,6,0.05000000074505806,1.0,783.8126220703125,['p'],1.0589439868927002,a,469.0
lattice,471,w,img/target_2.png,1,4,0.05000000074505806,1.0,784.9637451171875,['w'],1.0998687744140625,a,470.0
lattice,472,o,img/target_9.png,1,3,0.05000000074505806,1.0,786.1644897460938,['o'],1.0190949440002441,a,471.0
lattice,473,i,img/target_8.png,1,5,0.05000000074505806,1.0,787.28125,['i'],0.8296480178833008,a,472.0
lattice,474,p,img/target_10.png,1,6,0.05000000074505806,1.0,788.212158203125,['p'],0.8432059288024902,a,473.0
lattice,475,u,img/target_7.png,1,8,0.05000000074505806,1.0,789.1456909179688,['u'],0.8449351787567139,a,474.0
lattice,476,r,img/target_4.png,1,9,0.05000000074505806,1.0,790.0792236328125,['r'],0.7603759765625,a,475.0
lattice,477,e,img/target_3.png,1,7,0.05000000074505806,1.0,790.9299926757812,['e'],0.988577127456665,a,476.0
lattice,478,u,img/target_7.png,1,8,0.05000000074505806,1.0,792.0150756835938,['u'],1.0074870586395264,a,477.0
lattice,479,p,img/target_10.png,1,6,0.05000000074505806,1.0,793.1146850585938,['p'],0.6596589088439941,a,478.0
lattice,480,u,img/target_7.png,1,8,0.05000000074505806,1.0,793.8677368164062,['u'],1.219223976135254,a,479.0
lattice,481,e,img/target_3.png,1,7,0.05000000074505806,1.0,795.18212890625,['e'],0.8802111148834229,a,480.0
lattice,482,r,img/target_4.png,1,9,0.05000000074505806,1.0,796.1654052734375,['r'],1.1930961608886719,a,481.0
lattice,483,b,img/target_6.png,1,0,0.05000000074505806,1.0,797.4488525390625,['b'],1.0694200992584229,a,482.0
lattice,484,r,img/target_4.png,1,9,0.05000000074505806,1.0,798.6134643554688,['r'],0.8019909858703613,a,483.0
lattice,485,e,img/target_3.png,1,7,0.05000000074505806,1.0,799.5139770507812,['e'],1.0048739910125732,a,484.0
lattice,486,r,img/target_4.png,1,9,0.05000000074505806,1.0,800.6144409179688,['r'],0.7122640609741211,a,485.0
lattice,487,u,img/target_7.png,1,8,0.05000000074505806,1.0,801.4155883789062,['u'],0.9511890411376953,a,486.0
lattice,488,e,img/target_3.png,1,7,0.05000000074505806,1.0,802.4653930664062,['e'],0.918039083480835,a,487.0
lattice,489,r,img/target_4.png,1,9,0.05000000074505806,1.0,803.480712890625,['r'],1.0932698249816895,a,488.0
lattice,490,b,img/target_6.png,1,0,0.05000000074505806,1.0,804.6666870117188,['b'],0.8763918876647949,a,489.0
lattice,491,q,img/target_1.png,1,2,0.05000000074505806,1.0,805.6319580078125,['q'],0.6869580745697021,a,490.0
lattice,492,o,img/target_9.png,1,3,0.05000000074505806,1.0,806.413818359375,['o'],1.1608030796051025,a,491.0
lattice,493,w,img/target_2.png,1,4,0.05000000074505806,1.0,807.6681518554688,['w'],1.0344622135162354,a,492.0
lattice,494,o,img/target_9.png,1,3,0.05000000074505806,1.0,808.8024291992188,['o'],0.8754830360412598,a,493.0
lattice,495,q,img/target_1.png,1,2,0.05000000074505806,1.0,809.765869140625,['q'],0.8166100978851318,a,494.0
lattice,496,b,img/target_6.png,1,0,0.05000000074505806,1.0,810.6851196289062,['b'],1.1368310451507568,a,495.0
lattice,497,v,img/target_5.png,1,1,0.05000000074505806,1.0,811.9143676757812,['v'],0.8433971405029297,a,496.0
lattice,498,o,img/target_9.png,1,3,0.05000000074505806,1.0,812.8494873046875,['o'],1.3724069595336914,a,497.0
lattice,499,w,img/target_2.png,1,4,0.05000000074505806,1.0,814.3168334960938,['w'],0.7535209655761719,a,498.0
lattice,500,o,img/target_9.png,1,3,0.05000000074505806,1.0,815.1666259765625,['o'],0.9272661209106445,a,499.0
lattice,501,w,img/target_2.png,1,4,0.05000000074505806,0.0,912.283935546875,['w'],6.5823516845703125,a,500.0
lattice,502,o,img/target_9.png,1,3,0.05000000074505806,1.0,918.941650390625,['o'],1.340528964996338,a,501.0
lattice,503,i,img/target_8.png,1,5,0.05000000074505806,1.0,920.37646484375,['i'],0.7697079181671143,a,502.0
lattice,504,p,img/target_10.png,1,6,0.05000000074505806,1.0,921.2449340820312,['p'],0.5495150089263916,a,503.0
lattice,505,e,img/target_3.png,1,7,0.05000000074505806,0.0,921.8927001953125,['e'],1.5021729469299316,a,504.0
lattice,506,i,img/target_8.png,1,5,0.05000000074505806,1.0,923.4769897460938,['i'],1.1089980602264404,a,505.0
lattice,507,o,img/target_9.png,1,3,0.05000000074505806,1.0,924.6761474609375,['o'],0.7745897769927979,a,506.0
lattice,508,i,img/target_8.png,1,5,0.05000000074505806,1.0,925.54296875,['i'],0.4362499713897705,a,507.0
lattice,509,p,img/target_10.png,1,6,0.05000000074505806,1.0,926.0770874023438,['p'],0.7329139709472656,a,508.0
lattice,510,i,img/target_8.png,1,5,0.05000000074505806,1.0,926.9088134765625,['i'],0.8059799671173096,a,509.0
lattice,511,o,img/target_9.png,1,3,0.05000000074505806,1.0,927.81005859375,['o'],0.7837741374969482,a,510.0
lattice,512,w,img/target_2.png,1,4,0.05000000074505806,1.0,928.6925048828125,['w'],0.6865580081939697,a,511.0
lattice,513,q,img/target_1.png,1,2,0.05000000074505806,1.0,929.476806640625,['q'],0.5499870777130127,a,512.0
lattice,514,v,img/target_5.png,1,1,0.05000000074505806,1.0,930.1260986328125,['v'],3.843912124633789,a,513.0
lattice,515,q,img/target_1.png,1,2,0.05000000074505806,1.0,934.061767578125,['q'],0.820803165435791,a,514.0
lattice,516,o,img/target_9.png,1,3,0.05000000074505806,1.0,934.978271484375,['o'],0.8953959941864014,a,515.0
lattice,517,v,img/target_5.png,1,1,0.05000000074505806,0.0,935.9600219726562,['v'],1.9305899143218994,a,516.0
lattice,518,r,img/target_4.png,1,9,0.05000000074505806,1.0,937.96240234375,['r'],0.6879599094390869,a,517.0
lattice,519,v,img/target_5.png,1,1,0.05000000074505806,1.0,938.7453002929688,['v'],0.7121400833129883,a,518.0
lattice,520,b,img/target_6.png,1,0,0.05000000074505806,1.0,939.5443725585938,['b'],0.714339017868042,a,519.0
lattice,521,r,img/target_4.png,1,9,0.05000000074505806,1.0,940.361328125,['r'],0.7604100704193115,a,520.0
lattice,522,u,img/target_7.png,1,8,0.05000000074505806,1.0,941.2105712890625,['u'],0.7749011516571045,a,521.0
lattice,523,p,img/target_10.png,1,6,0.05000000074505806,1.0,942.0775146484375,['p'],0.6838421821594238,a,522.0
lattice,524,u,img/target_7.png,1,8,0.05000000074505806,1.0,942.8613891601562,['u'],0.9810471534729004,a,523.0
lattice,525,e,img/target_3.png,1,7,0.05000000074505806,0.0,943.9440307617188,['e'],1.681818962097168,a,524.0
lattice,526,p,img/target_10.png,1,6,0.05000000074505806,1.0,945.694580078125,['p'],0.8108870983123779,a,525.0
lattice,527,w,img/target_2.png,1,4,0.05000000074505806,1.0,946.5950317382812,['w'],0.7189929485321045,a,526.0
lattice,528,i,img/target_8.png,1,5,0.05000000074505806,1.0,947.41064453125,['i'],1.8466708660125732,a,527.0
lattice,529,e,img/target_3.png,1,7,0.05000000074505806,1.0,949.3456420898438,['e'],1.3834240436553955,a,528.0
lattice,530,u,img/target_7.png,1,8,0.05000000074505806,1.0,950.8291015625,['u'],0.7800760269165039,a,529.0
lattice,531,p,img/target_10.png,1,6,0.05000000074505806,1.0,951.6949462890625,['p'],0.6509439945220947,a,530.0
lattice,532,i,img/target_8.png,1,5,0.05000000074505806,1.0,952.44482421875,['i'],1.7242491245269775,a,531.0
lattice,533,e,img/target_3.png,1,7,0.05000000074505806,1.0,954.2615966796875,['e'],1.0032639503479004,a,532.0
lattice,534,p,img/target_10.png,1,6,0.05000000074505806,1.0,955.3635864257812,['p'],0.6613562107086182,a,533.0
lattice,535,w,img/target_2.png,1,4,0.05000000074505806,1.0,956.112060546875,['w'],1.089111089706421,a,534.0
lattice,536,p,img/target_10.png,1,6,0.05000000074505806,1.0,957.2986450195312,['p'],1.055239200592041,a,535.0
lattice,537,u,img/target_7.png,1,8,0.05000000074505806,1.0,958.445556640625,['u'],0.7643439769744873,a,536.0
lattice,538,r,img/target_4.png,1,9,0.05000000074505806,1.0,959.3126831054688,['r'],0.8091850280761719,a,537.0
lattice,539,u,img/target_7.png,1,8,0.05000000074505806,1.0,960.2141723632812,['u'],0.6995449066162109,a,538.0
lattice,540,b,img/target_6.png,1,0,0.05000000074505806,1.0,961.0169067382812,['b'],1.5920498371124268,a,539.0
lattice,541,q,img/target_1.png,1,2,0.05000000074505806,1.0,962.6985473632812,['q'],0.6870689392089844,a,540.0
lattice,542,b,img/target_6.png,1,0,0.05000000074505806,1.0,963.4797973632812,['b'],0.9368770122528076,a,541.0
lattice,543,u,img/target_7.png,1,8,0.05000000074505806,1.0,964.512939453125,['u'],0.6726150512695312,a,542.0
lattice,544,r,img/target_4.png,1,9,0.05000000074505806,1.0,965.2799682617188,['r'],1.320539951324463,a,543.0
lattice,545,u,img/target_7.png,1,8,0.05000000074505806,1.0,966.6966552734375,['u'],0.6642270088195801,a,544.0
lattice,546,e,img/target_3.png,1,7,0.05000000074505806,1.0,967.4634399414062,['e'],0.9942700862884521,a,545.0
lattice,547,u,img/target_7.png,1,8,0.05000000074505806,1.0,968.5469360351562,['u'],1.078110933303833,a,546.0
lattice,548,r,img/target_4.png,1,9,0.05000000074505806,1.0,969.7138061523438,['r'],1.3588061332702637,a,547.0
lattice,549,e,img/target_3.png,1,7,0.05000000074505806,1.0,971.1638793945312,['e'],0.7493908405303955,a,548.0
lattice,550,i,img/target_8.png,1,5,0.05000000074505806,1.0,972.01318359375,['i'],1.3473789691925049,a,549.0
lattice,551,e,img/target_3.png,1,7,0.05000000074505806,1.0,973.4476928710938,['e'],1.1446330547332764,a,550.0
lattice,552,u,img/target_7.png,1,8,0.05000000074505806,1.0,974.680908203125,['u'],0.6882190704345703,a,551.0
lattice,553,e,img/target_3.png,1,7,0.05000000074505806,1.0,975.4640502929688,['e'],0.7612719535827637,a,552.0
lattice,554,u,img/target_7.png,1,8,0.05000000074505806,1.0,976.314453125,['u'],0.830143928527832,a,553.0
lattice,555,r,img/target_4.png,1,9,0.05000000074505806,1.0,977.23095703125,['r'],0.7772278785705566,a,554.0
lattice,556,e,img/target_3.png,1,7,0.05000000074505806,1.0,978.09814453125,['e'],0.8859748840332031,a,555.0
lattice,557,u,img/target_7.png,1,8,0.05000000074505806,1.0,979.0811157226562,['u'],0.7991540431976318,a,556.0
lattice,558,r,img/target_4.png,1,9,0.05000000074505806,1.0,979.9641723632812,['r'],0.7967429161071777,a,557.0
lattice,559,b,img/target_6.png,1,0,0.05000000074505806,1.0,980.847412109375,['b'],0.840778112411499,a,558.0
lattice,560,u,img/target_7.png,1,8,0.05000000074505806,1.0,981.78125,['u'],1.0266568660736084,a,559.0
lattice,561,b,img/target_6.png,1,0,0.05000000074505806,1.0,982.8981323242188,['b'],1.0381450653076172,a,560.0
lattice,562,u,img/target_7.png,1,8,0.05000000074505806,1.0,984.0318603515625,['u'],0.833219051361084,a,561.0
lattice,563,p,img/target_10.png,1,6,0.05000000074505806,1.0,984.9688110351562,['p'],1.0241608619689941,a,562.0
lattice,564,u,img/target_7.png,1,8,0.05000000074505806,1.0,986.0830688476562,['u'],0.7091050148010254,a,563.0
lattice,565,e,img/target_3.png,1,7,0.05000000074505806,1.0,986.8843994140625,['e'],1.0363991260528564,a,564.0
lattice,566,p,img/target_10.png,1,6,0.05000000074505806,1.0,988.0169677734375,['p'],1.0788788795471191,a,565.0
lattice,567,i,img/target_8.png,1,5,0.05000000074505806,1.0,989.1820678710938,['i'],1.1865761280059814,a,566.0
lattice,568,p,img/target_10.png,1,6,0.05000000074505806,1.0,990.4688720703125,['p'],1.058786153793335,a,567.0
lattice,569,i,img/target_8.png,1,5,0.05000000074505806,1.0,991.6153564453125,['i'],1.377108097076416,a,568.0
lattice,570,e,img/target_3.png,1,7,0.05000000074505806,1.0,993.0824584960938,['e'],0.9735112190246582,a,569.0
lattice,571,i,img/target_8.png,1,5,0.05000000074505806,1.0,994.148681640625,['i'],1.411118984222412,a,570.0
lattice,572,w,img/target_2.png,1,4,0.05000000074505806,1.0,995.64990234375,['w'],1.0708239078521729,a,571.0
lattice,573,q,img/target_1.png,1,2,0.05000000074505806,1.0,996.8160400390625,['q'],0.7364389896392822,a,572.0
lattice,574,v,img/target_5.png,1,1,0.05000000074505806,0.0,997.651611328125,['v'],1.5319628715515137,a,573.0
lattice,575,b,img/target_6.png,1,0,0.05000000074505806,1.0,999.2670288085938,['b'],0.9724769592285156,a,574.0
lattice,576,r,img/target_4.png,1,9,0.05000000074505806,1.0,1000.3327026367188,['r'],0.9146740436553955,a,575.0
lattice,577,e,img/target_3.png,1,7,0.05000000074505806,1.0,1001.33349609375,['e'],0.8338100910186768,a,576.0
lattice,578,r,img/target_4.png,1,9,0.05000000074505806,1.0,1002.26708984375,['r'],0.8928349018096924,a,577.0
lattice,579,u,img/target_7.png,1,8,0.05000000074505806,1.0,1003.2505493164062,['u'],0.6539509296417236,a,578.0
lattice,580,r,img/target_4.png,1,9,0.05000000074505806,1.0,1003.9998168945312,['r'],0.9360799789428711,a,579.0
lattice,581,u,img/target_7.png,1,8,0.05000000074505806,1.0,1005.0338134765625,['u'],1.1173491477966309,a,580.0
lattice,582,e,img/target_3.png,1,7,0.05000000074505806,1.0,1006.2528686523438,['e'],0.9232978820800781,a,581.0
lattice,583,i,img/target_8.png,1,5,0.05000000074505806,1.0,1007.2669677734375,['i'],1.3007819652557373,a,582.0
lattice,584,w,img/target_2.png,1,4,0.05000000074505806,1.0,1008.6674194335938,['w'],1.0356030464172363,a,583.0
lattice,585,i,img/target_8.png,1,5,0.05000000074505806,1.0,1009.8006591796875,['i'],1.0145149230957031,a,584.0
lattice,586,e,img/target_3.png,1,7,0.05000000074505806,1.0,1010.901123046875,['e'],1.074537992477417,a,585.0
lattice,587,p,img/target_10.png,1,6,0.05000000074505806,1.0,1012.0675048828125,['p'],0.9717929363250732,a,586.0
lattice,588,e,img/target_3.png,1,7,0.05000000074505806,1.0,1013.1343383789062,['e'],0.7134659290313721,a,587.0
lattice,589,p,img/target_10.png,1,6,0.05000000074505806,1.0,1013.9338989257812,['p'],0.9140591621398926,a,588.0
lattice,590,i,img/target_8.png,1,5,0.05000000074505806,1.0,1014.9341430664062,['i'],0.6735849380493164,a,589.0
lattice,591,w,img/target_2.png,1,4,0.05000000074505806,1.0,1015.7008666992188,['w'],0.650134801864624,a,590.0
lattice,592,o,img/target_9.png,1,3,0.05000000074505806,1.0,1016.4515380859375,['o'],0.9721260070800781,a,591.0
lattice,593,w,img/target_2.png,1,4,0.05000000074505806,1.0,1017.5179443359375,['w'],0.9290070533752441,a,592.0
lattice,594,i,img/target_8.png,1,5,0.05000000074505806,1.0,1018.53564453125,['i'],1.575303077697754,a,593.0
lattice,595,p,img/target_10.png,1,6,0.05000000074505806,1.0,1020.201904296875,['p'],0.5889310836791992,a,594.0
lattice,596,i,img/target_8.png,1,5,0.05000000074505806,1.0,1020.8850708007812,['i'],0.6816928386688232,a,595.0
lattice,597,o,img/target_9.png,1,3,0.05000000074505806,1.0,1021.6512451171875,['o'],0.6837339401245117,a,596.0
lattice,598,v,img/target_5.png,1,1,0.05000000074505806,1.0,1022.43896484375,['v'],1.1042439937591553,a,597.0
lattice,599,o,img/target_9.png,1,3,0.05000000074505806,1.0,1023.6349487304688,['o'],0.9798731803894043,a,598.0
lattice,600,i,img/target_8.png,1,5,0.05000000074505806,1.0,1024.703857421875,['i'],1.0549647808074951,a,599.0
lattice,601,o,img/target_9.png,1,3,0.05000000074505806,1.0,1025.8560791015625,['o'],0.7345130443572998,a,600.0
lattice,602,i,img/target_8.png,1,5,0.05000000074505806,1.0,1026.687255859375,['i'],0.37649106979370117,a,601.0
lattice,603,o,img/target_9.png,1,3,0.05000000074505806,1.0,1027.153564453125,['o'],0.4850490093231201,a,602.0
lattice,604,q,img/target_1.png,1,2,0.05000000074505806,1.0,1027.7357177734375,['q'],1.086855173110962,a,603.0
lattice,605,w,img/target_2.png,1,4,0.05000000074505806,1.0,1028.9219970703125,['w'],0.7564840316772461,a,604.0
lattice,606,p,img/target_10.png,1,6,0.05000000074505806,1.0,1029.76904296875,['p'],0.8933899402618408,a,605.0
lattice,607,e,img/target_3.png,1,7,0.05000000074505806,1.0,1030.753173828125,['e'],0.7663869857788086,a,606.0
lattice,608,p,img/target_10.png,1,6,0.05000000074505806,1.0,1031.6197509765625,['p'],0.5797388553619385,a,607.0
lattice,609,i,img/target_8.png,1,5,0.05000000074505806,1.0,1032.30322265625,['i'],0.951146125793457,a,608.0
lattice,610,w,img/target_2.png,1,4,0.05000000074505806,1.0,1033.3521728515625,['w'],1.022658109664917,a,609.0
lattice,611,i,img/target_8.png,1,5,0.05000000074505806,1.0,1034.4705810546875,['i'],0.8163049221038818,a,610.0
lattice,612,o,img/target_9.png,1,3,0.05000000074505806,1.0,1035.3885498046875,['o'],0.7857439517974854,a,611.0
lattice,613,q,img/target_1.png,1,2,0.05000000074505806,1.0,1036.2701416015625,['q'],0.9285149574279785,a,612.0
lattice,614,w,img/target_2.png,1,4,0.05000000074505806,1.0,1037.28662109375,['w'],0.8077189922332764,a,613.0
lattice,615,q,img/target_1.png,1,2,0.05000000074505806,1.0,1038.1884765625,['q'],0.7537200450897217,a,614.0
lattice,616,w,img/target_2.png,1,4,0.05000000074505806,1.0,1039.0374755859375,['w'],0.8086240291595459,a,615.0
lattice,617,i,img/target_8.png,1,5,0.05000000074505806,1.0,1039.9364013671875,['i'],0.9265379905700684,a,616.0
lattice,618,w,img/target_2.png,1,4,0.05000000074505806,1.0,1040.9541015625,['w'],1.1244699954986572,a,617.0
lattice,619,p,img/target_10.png,1,6,0.05000000074505806,1.0,1042.17138671875,['p'],1.1795849800109863,a,618.0
lattice,620,e,img/target_3.png,1,7,0.05000000074505806,1.0,1043.454833984375,['e'],0.855471134185791,a,619.0
lattice,621,p,img/target_10.png,1,6,0.05000000074505806,1.0,1044.4046630859375,['p'],1.105226993560791,a,620.0
lattice,622,i,img/target_8.png,1,5,0.05000000074505806,1.0,1045.6043701171875,['i'],0.47366809844970703,a,621.0
lattice,623,w,img/target_2.png,1,4,0.05000000074505806,1.0,1046.1717529296875,['w'],1.882101058959961,a,622.0
lattice,624,q,img/target_1.png,1,2,0.05000000074505806,1.0,1048.15478515625,['q'],1.626910924911499,a,623.0
lattice,625,v,img/target_5.png,1,1,0.05000000074505806,1.0,1049.8748779296875,['v'],1.6189169883728027,a,624.0
lattice,626,b,img/target_6.png,1,0,0.05000000074505806,1.0,1051.58935546875,['b'],0.8486330509185791,a,625.0
lattice,627,u,img/target_7.png,1,8,0.05000000074505806,1.0,1052.5384521484375,['u'],0.8597559928894043,a,626.0
lattice,628,p,img/target_10.png,1,6,0.05000000074505806,1.0,1053.4896240234375,['p'],0.8126718997955322,a,627.0
lattice,629,u,img/target_7.png,1,8,0.05000000074505806,1.0,1054.40576171875,['u'],0.592087984085083,a,628.0
lattice,630,b,img/target_6.png,1,0,0.05000000074505806,1.0,1055.0888671875,['b'],0.9167459011077881,a,629.0
lattice,631,v,img/target_5.png,1,1,0.05000000074505806,1.0,1056.1048583984375,['v'],0.8456990718841553,a,630.0
lattice,632,o,img/target_9.png,1,3,0.05000000074505806,1.0,1057.0382080078125,['o'],0.9913060665130615,a,631.0
lattice,633,w,img/target_2.png,1,4,0.05000000074505806,1.0,1058.122314453125,['w'],0.7879118919372559,a,632.0
lattice,634,o,img/target_9.png,1,3,0.05000000074505806,1.0,1059.0057373046875,['o'],0.8157119750976562,a,633.0
lattice,635,i,img/target_8.png,1,5,0.05000000074505806,1.0,1059.92236328125,['i'],0.7711830139160156,a,634.0
lattice,636,w,img/target_2.png,1,4,0.05000000074505806,1.0,1060.78955078125,['w'],0.7199099063873291,a,635.0
lattice,637,q,img/target_1.png,1,2,0.05000000074505806,1.0,1061.605224609375,['q'],0.6652231216430664,a,636.0
lattice,638,b,img/target_6.png,1,0,0.05000000074505806,1.0,1062.3726806640625,['b'],1.0411078929901123,a,637.0
lattice,639,v,img/target_5.png,1,1,0.05000000074505806,1.0,1063.505859375,['v'],0.707751989364624,a,638.0
lattice,640,r,img/target_4.png,1,9,0.05000000074505806,1.0,1064.307861328125,['r'],0.8103549480438232,a,639.0
lattice,641,u,img/target_7.png,1,8,0.05000000074505806,1.0,1065.2080078125,['u'],0.9096858501434326,a,640.0
lattice,642,p,img/target_10.png,1,6,0.05000000074505806,1.0,1066.2095947265625,['p'],0.5239899158477783,a,641.0
lattice,643,e,img/target_3.png,1,7,0.05000000074505806,0.0,1066.8258056640625,['e'],1.4673869609832764,a,642.0
lattice,644,r,img/target_4.png,1,9,0.05000000074505806,1.0,1068.3734130859375,['r'],0.9276988506317139,a,643.0
lattice,645,e,img/target_3.png,1,7,0.05000000074505806,1.0,1069.3895263671875,['e'],0.7283599376678467,a,644.0
lattice,646,r,img/target_4.png,1,9,0.05000000074505806,1.0,1070.206787109375,['r'],0.5430459976196289,a,645.0
lattice,647,e,img/target_3.png,1,7,0.05000000074505806,1.0,1070.8402099609375,['e'],0.460770845413208,a,646.0
lattice,648,r,img/target_4.png,1,9,0.05000000074505806,1.0,1071.3902587890625,['r'],0.6558351516723633,a,647.0
lattice,649,e,img/target_3.png,1,7,0.05000000074505806,1.0,1072.140625,['e'],0.6015748977661133,a,648.0
lattice,650,u,img/target_7.png,1,8,0.05000000074505806,1.0,1072.8406982421875,['u'],0.6681821346282959,a,649.0
lattice,651,p,img/target_10.png,1,6,0.05000000074505806,1.0,1073.6063232421875,['p'],0.6225728988647461,a,650.0
lattice,652,e,img/target_3.png,1,7,0.05000000074505806,1.0,1074.325439453125,['e'],0.9752991199493408,a,651.0
lattice,653,i,img/target_8.png,1,5,0.05000000074505806,1.0,1075.39013671875,['i'],1.03084397315979,a,652.0
lattice,654,e,img/target_3.png,1,7,0.05000000074505806,1.0,1076.509033203125,['e'],0.8079609870910645,a,653.0
lattice,655,p,img/target_10.png,1,6,0.05000000074505806,1.0,1077.4066162109375,['p'],0.9747319221496582,a,654.0
lattice,656,w,img/target_2.png,1,4,0.05000000074505806,1.0,1078.4759521484375,['w'],1.4095780849456787,a,655.0
lattice,657,i,img/target_8.png,1,5,0.05000000074505806,1.0,1079.9742431640625,['i'],0.8069159984588623,a,656.0
lattice,658,w,img/target_2.png,1,4,0.05000000074505806,1.0,1080.874267578125,['w'],0.9784228801727295,a,657.0
lattice,659,p,img/target_10.png,1,6,0.05000000074505806,1.0,1081.944091796875,['p'],1.308609962463379,a,658.0
lattice,660,e,img/target_3.png,1,7,0.05000000074505806,1.0,1083.3408203125,['e'],0.9359128475189209,a,659.0
lattice,661,r,img/target_4.png,1,9,0.05000000074505806,1.0,1084.374755859375,['r'],1.2706060409545898,a,660.0
lattice,662,e,img/target_3.png,1,7,0.05000000074505806,1.0,1085.7412109375,['e'],0.7194480895996094,a,661.0
lattice,663,u,img/target_7.png,1,8,0.05000000074505806,1.0,1086.5587158203125,['u'],1.9666790962219238,a,662.0
lattice,664,b,img/target_6.png,1,0,0.05000000074505806,0.0,1088.6259765625,['b'],3.41867995262146,a,663.0
lattice,665,u,img/target_7.png,1,8,0.05000000074505806,1.0,1092.1251220703125,['u'],0.7360200881958008,a,664.0
lattice,666,p,img/target_10.png,1,6,0.05000000074505806,1.0,1092.95947265625,['p'],1.1251368522644043,a,665.0
lattice,667,w,img/target_2.png,1,4,0.05000000074505806,1.0,1094.177734375,['w'],0.7872672080993652,a,666.0
lattice,668,o,img/target_9.png,1,3,0.05000000074505806,1.0,1095.0592041015625,['o'],1.0250701904296875,a,667.0
lattice,669,v,img/target_5.png,1,1,0.05000000074505806,1.0,1096.1754150390625,['v'],1.4448530673980713,a,668.0
lattice,670,o,img/target_9.png,1,3,0.05000000074505806,1.0,1097.7091064453125,['o'],0.9200170040130615,a,669.0
lattice,671,q,img/target_1.png,1,2,0.05000000074505806,1.0,1098.7264404296875,['q'],0.9095861911773682,a,670.0
lattice,672,o,img/target_9.png,1,3,0.05000000074505806,1.0,1099.726318359375,['o'],1.1191251277923584,a,671.0
lattice,673,w,img/target_2.png,1,4,0.05000000074505806,1.0,1100.9434814453125,['w'],0.9327318668365479,a,672.0
lattice,674,p,img/target_10.png,1,6,0.05000000074505806,1.0,1101.9766845703125,['p'],1.2841129302978516,a,673.0
lattice,675,w,img/target_2.png,1,4,0.05000000074505806,1.0,1103.3592529296875,['w'],0.8137340545654297,a,674.0
lattice,676,q,img/target_1.png,1,2,0.05000000074505806,1.0,1104.2764892578125,['q'],0.6715240478515625,a,675.0
lattice,677,b,img/target_6.png,1,0,0.05000000074505806,1.0,1105.0430908203125,['b'],0.6648499965667725,a,676.0
lattice,678,q,img/target_1.png,1,2,0.05000000074505806,1.0,1105.7928466796875,['q'],0.8838350772857666,a,677.0
lattice,679,v,img/target_5.png,1,1,0.05000000074505806,1.0,1106.7762451171875,['v'],0.8354711532592773,a,678.0
lattice,680,q,img/target_1.png,1,2,0.05000000074505806,1.0,1107.71044921875,['q'],0.7103018760681152,a,679.0
lattice,681,v,img/target_5.png,1,1,0.05000000074505806,1.0,1108.5107421875,['v'],0.6769599914550781,a,680.0
lattice,682,b,img/target_6.png,1,0,0.05000000074505806,1.0,1109.2772216796875,['b'],0.5424420833587646,a,681.0
lattice,683,v,img/target_5.png,1,1,0.05000000074505806,1.0,1109.910400390625,['v'],0.42931509017944336,a,682.0
lattice,684,b,img/target_6.png,1,0,0.05000000074505806,1.0,1110.426513671875,['b'],0.4980769157409668,a,683.0
lattice,685,u,img/target_7.png,1,8,0.05000000074505806,1.0,1111.026611328125,['u'],0.769989013671875,a,684.0
lattice,686,b,img/target_6.png,1,0,0.05000000074505806,1.0,1111.8931884765625,['b'],1.1116149425506592,a,685.0
lattice,687,v,img/target_5.png,1,1,0.05000000074505806,1.0,1113.0936279296875,['v'],0.6139678955078125,a,686.0
lattice,688,b,img/target_6.png,1,0,0.05000000074505806,1.0,1113.793701171875,['b'],0.7618308067321777,a,687.0
lattice,689,r,img/target_4.png,1,9,0.05000000074505806,1.0,1114.6436767578125,['r'],0.8239591121673584,a,688.0
lattice,690,u,img/target_7.png,1,8,0.05000000074505806,0.0,1115.561279296875,['u'],1.5302698612213135,a,689.0
lattice,691,e,img/target_3.png,1,7,0.05000000074505806,0.0,1117.161376953125,['e'],2.761949062347412,a,690.0
lattice,692,u,img/target_7.png,1,8,0.05000000074505806,1.0,1119.9947509765625,['u'],0.5606911182403564,a,691.0
lattice,693,e,img/target_3.png,1,7,0.05000000074505806,1.0,1120.645751953125,['e'],0.7496058940887451,a,692.0
lattice,694,u,img/target_7.png,1,8,0.05000000074505806,1.0,1121.494384765625,['u'],0.6927909851074219,a,693.0
lattice,695,r,img/target_4.png,1,9,0.05000000074505806,1.0,1122.2786865234375,['r'],0.8045289516448975,a,694.0
lattice,696,e,img/target_3.png,1,7,0.05000000074505806,1.0,1123.1778564453125,['e'],0.8419139385223389,a,695.0
lattice,697,p,img/target_10.png,1,6,0.05000000074505806,1.0,1124.1116943359375,['p'],0.932297945022583,a,696.0
lattice,698,w,img/target_2.png,1,4,0.05000000074505806,1.0,1125.144775390625,['w'],0.8584651947021484,a,697.0
lattice,699,i,img/target_8.png,1,5,0.05000000074505806,0.0,1126.0947265625,['i'],1.285426139831543,a,698.0
lattice,700,e,img/target_3.png,1,7,0.05000000074505806,1.0,1127.4617919921875,['e'],1.4372739791870117,a,699.0
lattice,701,u,img/target_7.png,1,8,0.05000000074505806,1.0,1128.9957275390625,['u'],0.6239619255065918,a,700.0
lattice,702,e,img/target_3.png,1,7,0.05000000074505806,1.0,1129.712646484375,['e'],0.835054874420166,a,701.0
lattice,703,u,img/target_7.png,1,8,0.05000000074505806,1.0,1130.645263671875,['u'],1.2068729400634766,a,702.0
lattice,704,r,img/target_4.png,1,9,0.05000000074505806,1.0,1131.9461669921875,['r'],0.7695939540863037,a,703.0
lattice,705,v,img/target_5.png,1,1,0.05000000074505806,0.0,1132.8123779296875,['v'],1.1664409637451172,a,704.0
lattice,706,o,img/target_9.png,1,3,0.05000000074505806,1.0,1134.0640869140625,['o'],0.8198111057281494,a,705.0
lattice,707,w,img/target_2.png,1,4,0.05000000074505806,1.0,1134.9805908203125,['w'],0.6623070240020752,a,706.0
lattice,708,p,img/target_10.png,1,6,0.05000000074505806,1.0,1135.7327880859375,['p'],0.6860899925231934,a,707.0
lattice,709,u,img/target_7.png,1,8,0.05000000074505806,1.0,1136.5142822265625,['u'],0.6736950874328613,a,708.0
lattice,710,e,img/target_3.png,1,7,0.05000000074505806,1.0,1137.28173828125,['e'],0.8330841064453125,a,709.0
lattice,711,p,img/target_10.png,1,6,0.05000000074505806,1.0,1138.21337890625,['p'],0.9012651443481445,a,710.0
lattice,712,i,img/target_8.png,1,5,0.05000000074505806,0.0,1139.2142333984375,['i'],1.2284021377563477,a,711.0
lattice,713,p,img/target_10.png,1,6,0.05000000074505806,1.0,1140.5135498046875,['p'],0.7931139469146729,a,712.0
lattice,714,e,img/target_3.png,1,7,0.05000000074505806,1.0,1141.3961181640625,['e'],0.7434787750244141,a,713.0
lattice,715,r,img/target_4.png,1,9,0.05000000074505806,1.0,1142.230224609375,['r'],0.8773610591888428,a,714.0
lattice,716,v,img/target_5.png,1,1,0.05000000074505806,1.0,1143.197265625,['v'],1.4052889347076416,a,715.0
lattice,717,r,img/target_4.png,1,9,0.05000000074505806,1.0,1144.6973876953125,['r'],0.6503241062164307,a,716.0
lattice,718,e,img/target_3.png,1,7,0.05000000074505806,1.0,1145.4476318359375,['e'],0.8276660442352295,a,717.0
lattice,719,r,img/target_4.png,1,9,0.05000000074505806,1.0,1146.364501953125,['r'],0.7339470386505127,a,718.0
lattice,720,u,img/target_7.png,1,8,0.05000000074505806,1.0,1147.19775390625,['u'],0.6846752166748047,a,719.0
lattice,721,p,img/target_10.png,1,6,0.05000000074505806,1.0,1147.980224609375,['p'],1.0703959465026855,a,720.0
lattice,722,e,img/target_3.png,1,7,0.05000000074505806,1.0,1149.14794921875,['e'],0.7903718948364258,a,721.0
lattice,723,r,img/target_4.png,1,9,0.05000000074505806,1.0,1150.03125,['r'],0.8031260967254639,a,722.0
lattice,724,v,img/target_5.png,1,1,0.05000000074505806,1.0,1150.930908203125,['v'],0.9994239807128906,a,723.0
lattice,725,q,img/target_1.png,1,2,0.05000000074505806,1.0,1152.0316162109375,['q'],0.6907689571380615,a,724.0
lattice,726,w,img/target_2.png,1,4,0.05000000074505806,1.0,1152.814208984375,['w'],0.8125379085540771,a,725.0
lattice,727,i,img/target_8.png,1,5,0.05000000074505806,1.0,1153.71484375,['i'],0.8318150043487549,a,726.0
lattice,728,p,img/target_10.png,1,6,0.05000000074505806,1.0,1154.6500244140625,['p'],0.6885921955108643,a,727.0
lattice,729,w,img/target_2.png,1,4,0.05000000074505806,1.0,1155.4344482421875,['w'],1.1676499843597412,a,728.0
lattice,730,o,img/target_9.png,1,3,0.05000000074505806,1.0,1156.6978759765625,['o'],0.9922950267791748,a,729.0
lattice,731,i,img/target_8.png,1,5,0.05000000074505806,1.0,1157.7822265625,['i'],1.5172221660614014,a,730.0
lattice,732,e,img/target_3.png,1,7,0.05000000074505806,1.0,1159.39794921875,['e'],0.8363759517669678,a,731.0
lattice,733,u,img/target_7.png,1,8,0.05000000074505806,1.0,1160.332275390625,['u'],0.7658109664916992,a,732.0
lattice,734,r,img/target_4.png,1,9,0.05000000074505806,1.0,1161.19921875,['r'],0.826815128326416,a,733.0
lattice,735,v,img/target_5.png,1,1,0.05000000074505806,1.0,1162.1158447265625,['v'],1.343338966369629,a,734.0
lattice,736,r,img/target_4.png,1,9,0.05000000074505806,1.0,1163.549072265625,['r'],0.6846299171447754,a,735.0
lattice,737,b,img/target_6.png,1,0,0.05000000074505806,1.0,1164.3316650390625,['b'],1.214914083480835,a,736.0
lattice,738,u,img/target_7.png,1,8,0.05000000074505806,0.0,1165.6490478515625,['u'],1.1856000423431396,a,737.0
lattice,739,p,img/target_10.png,1,6,0.05000000074505806,1.0,1166.9163818359375,['p'],0.6693651676177979,a,738.0
lattice,740,u,img/target_7.png,1,8,0.05000000074505806,1.0,1167.6829833984375,['u'],0.6465868949890137,a,739.0
lattice,741,r,img/target_4.png,1,9,0.05000000074505806,1.0,1168.4161376953125,['r'],0.7383499145507812,a,740.0
lattice,742,v,img/target_5.png,1,1,0.05000000074505806,1.0,1169.2489013671875,['v'],0.9607851505279541,a,741.0
lattice,743,r,img/target_4.png,1,9,0.05000000074505806,1.0,1170.299560546875,['r'],0.8061850070953369,a,742.0
lattice,744,b,img/target_6.png,1,0,0.05000000074505806,1.0,1171.2008056640625,['b'],1.049180030822754,a,743.0
lattice,745,q,img/target_1.png,1,2,0.05000000074505806,1.0,1172.3509521484375,['q'],0.731450080871582,a,744.0
lattice,746,w,img/target_2.png,1,4,0.05000000074505806,1.0,1173.183349609375,['w'],1.2670249938964844,a,745.0
lattice,747,p,img/target_10.png,1,6,0.05000000074505806,1.0,1174.5498046875,['p'],1.0760109424591064,a,746.0
lattice,748,i,img/target_8.png,1,5,0.05000000074505806,1.0,1175.717041015625,['i'],0.7083539962768555,a,747.0
lattice,749,o,img/target_9.png,1,3,0.05000000074505806,1.0,1176.516845703125,['o'],0.6696450710296631,a,748.0
lattice,750,w,img/target_2.png,1,4,0.05000000074505806,1.0,1177.2838134765625,['w'],0.9263789653778076,a,749.0
lattice,751,q,img/target_1.png,1,2,0.05000000074505806,1.0,1231.4671630859375,['q'],3.22883677482605,a,750.0
lattice,752,v,img/target_5.png,1,1,0.05000000074505806,1.0,1234.7896728515625,['v'],2.1139659881591797,a,751.0
lattice,753,b,img/target_6.png,1,0,0.05000000074505806,1.0,1236.9901123046875,['b'],0.7378458976745605,a,752.0
lattice,754,v,img/target_5.png,1,1,0.05000000074505806,1.0,1237.823486328125,['v'],0.36809301376342773,a,753.0
lattice,755,o,img/target_9.png,1,3,0.05000000074505806,0.0,1238.2900390625,['o'],5.733148097991943,a,754.0
lattice,756,i,img/target_8.png,1,5,0.05000000074505806,1.0,1244.1065673828125,['i'],1.4609098434448242,a,755.0
lattice,757,o,img/target_9.png,1,3,0.05000000074505806,1.0,1245.6561279296875,['o'],0.6316509246826172,a,756.0
lattice,758,i,img/target_8.png,1,5,0.05000000074505806,1.0,1246.389892578125,['i'],0.4893310070037842,a,757.0
lattice,759,e,img/target_3.png,1,7,0.05000000074505806,1.0,1246.97412109375,['e'],0.6181950569152832,a,758.0
lattice,760,u,img/target_7.png,1,8,0.05000000074505806,1.0,1247.689453125,['u'],1.2614800930023193,a,759.0
lattice,761,r,img/target_4.png,1,9,0.05000000074505806,1.0,1249.0400390625,['r'],0.759178876876831,a,760.0
lattice,762,u,img/target_7.png,1,8,0.05000000074505806,0.0,1249.890625,['u'],1.1321330070495605,a,761.0
lattice,763,e,img/target_3.png,1,7,0.05000000074505806,1.0,1251.0924072265625,['e'],0.9626898765563965,a,762.0
lattice,764,u,img/target_7.png,1,8,0.05000000074505806,1.0,1252.139892578125,['u'],0.5392899513244629,a,763.0
lattice,765,p,img/target_10.png,1,6,0.05000000074505806,1.0,1252.7734375,['p'],0.825653076171875,a,764.0
lattice,766,i,img/target_8.png,1,5,0.05000000074505806,1.0,1253.69287109375,['i'],0.7779059410095215,a,765.0
lattice,767,w,img/target_2.png,1,4,0.05000000074505806,1.0,1254.557373046875,['w'],0.8183631896972656,a,766.0
lattice,768,i,img/target_8.png,1,5,0.05000000074505806,1.0,1255.47412109375,['i'],1.0608680248260498,a,767.0
lattice,769,o,img/target_9.png,1,3,0.05000000074505806,1.0,1256.62646484375,['o'],0.8043408393859863,a,768.0
lattice,770,q,img/target_1.png,1,2,0.05000000074505806,1.0,1257.525146484375,['q'],0.7777919769287109,a,769.0
lattice,771,w,img/target_2.png,1,4,0.05000000074505806,1.0,1258.39111328125,['w'],0.8077309131622314,a,770.0
lattice,772,q,img/target_1.png,1,2,0.05000000074505806,1.0,1259.2919921875,['q'],0.7233288288116455,a,771.0
lattice,773,v,img/target_5.png,1,1,0.05000000074505806,1.0,1260.108642578125,['v'],1.3148040771484375,a,772.0
lattice,774,r,img/target_4.png,1,9,0.05000000074505806,1.0,1261.524658203125,['r'],2.026050090789795,a,773.0
lattice,775,v,img/target_5.png,1,1,0.05000000074505806,1.0,1263.642333984375,['v'],1.100376844406128,a,774.0
lattice,776,q,img/target_1.png,1,2,0.05000000074505806,1.0,1264.845703125,['q'],0.6410739421844482,a,775.0
lattice,777,o,img/target_9.png,1,3,0.05000000074505806,1.0,1265.57763671875,['o'],1.1180799007415771,a,776.0
lattice,778,q,img/target_1.png,1,2,0.05000000074505806,1.0,1266.7940673828125,['q'],0.9643158912658691,a,777.0
lattice,779,w,img/target_2.png,1,4,0.05000000074505806,1.0,1267.8585205078125,['w'],0.9243290424346924,a,778.0
lattice,780,o,img/target_9.png,1,3,0.05000000074505806,1.0,1268.87548828125,['o'],0.9788899421691895,a,779.0
lattice,781,i,img/target_8.png,1,5,0.05000000074505806,1.0,1269.944580078125,['i'],1.0305509567260742,a,780.0
lattice,782,e,img/target_3.png,1,7,0.05000000074505806,1.0,1271.0767822265625,['e'],1.625546932220459,a,781.0
lattice,783,r,img/target_4.png,1,9,0.05000000074505806,1.0,1272.79296875,['r'],1.182049036026001,a,782.0
lattice,784,v,img/target_5.png,1,1,0.05000000074505806,1.0,1274.0794677734375,['v'],1.0146849155426025,a,783.0
lattice,785,q,img/target_1.png,1,2,0.05000000074505806,1.0,1275.195556640625,['q'],0.7392420768737793,a,784.0
lattice,786,o,img/target_9.png,1,3,0.05000000074505806,1.0,1276.025634765625,['o'],1.164355993270874,a,785.0
lattice,787,i,img/target_8.png,1,5,0.05000000074505806,1.0,1277.275634765625,['i'],0.9142749309539795,a,786.0
lattice,788,w,img/target_2.png,1,4,0.05000000074505806,1.0,1278.27587890625,['w'],3.2580559253692627,a,787.0
lattice,789,o,img/target_9.png,1,3,0.05000000074505806,1.0,1281.6260986328125,['o'],0.8998229503631592,a,788.0
lattice,790,q,img/target_1.png,1,2,0.05000000074505806,1.0,1282.6287841796875,['q'],0.9131479263305664,a,789.0
lattice,791,o,img/target_9.png,1,3,0.05000000074505806,1.0,1283.62744140625,['o'],0.8028371334075928,a,790.0
lattice,792,q,img/target_1.png,1,2,0.05000000074505806,1.0,1284.5289306640625,['q'],0.7966868877410889,a,791.0
lattice,793,b,img/target_6.png,1,0,0.05000000074505806,1.0,1285.4107666015625,['b'],0.9628100395202637,a,792.0
lattice,794,v,img/target_5.png,1,1,0.05000000074505806,1.0,1286.4613037109375,['v'],0.665736198425293,a,793.0
lattice,795,q,img/target_1.png,1,2,0.05000000074505806,1.0,1287.2298583984375,['q'],0.8326940536499023,a,794.0
lattice,796,b,img/target_6.png,1,0,0.05000000074505806,1.0,1288.1630859375,['b'],0.9872429370880127,a,795.0
lattice,797,v,img/target_5.png,1,1,0.05000000074505806,1.0,1289.247314453125,['v'],0.7113640308380127,a,796.0
lattice,798,o,img/target_9.png,1,3,0.05000000074505806,1.0,1290.0609130859375,['o'],0.8887379169464111,a,797.0
lattice,799,w,img/target_2.png,1,4,0.05000000074505806,1.0,1291.044677734375,['w'],0.6568620204925537,a,798.0
lattice,800,p,img/target_10.png,1,6,0.05000000074505806,1.0,1291.7955322265625,['p'],1.242081880569458,a,799.0
lattice,801,i,img/target_8.png,1,5,0.05000000074505806,0.0,1293.12841796875,['i'],1.572815179824829,a,800.0
lattice,802,p,img/target_10.png,1,6,0.05000000074505806,1.0,1294.778076171875,['p'],0.7634990215301514,a,801.0
lattice,803,w,img/target_2.png,1,4,0.05000000074505806,1.0,1295.6278076171875,['w'],0.8736269474029541,a,802.0
lattice,804,q,img/target_1.png,1,2,0.05000000074505806,1.0,1296.5963134765625,['q'],1.6581032276153564,a,803.0
lattice,805,w,img/target_2.png,1,4,0.05000000074505806,1.0,1298.3460693359375,['w'],0.8355729579925537,a,804.0
lattice,806,i,img/target_8.png,1,5,0.05000000074505806,1.0,1299.281494140625,['i'],1.8676660060882568,a,805.0
lattice,807,o,img/target_9.png,1,3,0.05000000074505806,1.0,1301.24658203125,['o'],0.9108190536499023,a,806.0
lattice,808,w,img/target_2.png,1,4,0.05000000074505806,1.0,1302.2459716796875,['w'],1.1352570056915283,a,807.0
lattice,809,o,img/target_9.png,1,3,0.05000000074505806,1.0,1303.4813232421875,['o'],1.7640361785888672,a,808.0
lattice,810,w,img/target_2.png,1,4,0.05000000074505806,1.0,1305.3492431640625,['w'],1.2005271911621094,a,809.0
lattice,811,q,img/target_1.png,1,2,0.05000000074505806,1.0,1306.6458740234375,['q'],1.1351089477539062,a,810.0
lattice,812,o,img/target_9.png,1,3,0.05000000074505806,1.0,1307.8798828125,['o'],1.7419240474700928,a,811.0
lattice,813,v,img/target_5.png,1,1,0.05000000074505806,1.0,1309.7139892578125,['v'],2.4754998683929443,a,812.0
lattice,814,o,img/target_9.png,1,3,0.05000000074505806,1.0,1312.280029296875,['o'],1.4615259170532227,a,813.0
lattice,815,w,img/target_2.png,1,4,0.05000000074505806,1.0,1313.8316650390625,['w'],1.6138930320739746,a,814.0
lattice,816,p,img/target_10.png,1,6,0.05000000074505806,1.0,1315.5469970703125,['p'],3.6178200244903564,a,815.0
lattice,817,w,img/target_2.png,1,4,0.05000000074505806,1.0,1319.264892578125,['w'],1.3158791065216064,a,816.0
lattice,818,q,img/target_1.png,1,2,0.05000000074505806,1.0,1320.68310546875,['q'],0.8974230289459229,a,817.0
lattice,819,o,img/target_9.png,1,3,0.05000000074505806,1.0,1321.6800537109375,['o'],0.8606119155883789,a,818.0
lattice,820,i,img/target_8.png,1,5,0.05000000074505806,1.0,1322.6304931640625,['i'],0.6631069183349609,a,819.0
lattice,821,p,img/target_10.png,1,6,0.05000000074505806,1.0,1323.3826904296875,['p'],0.9577908515930176,a,820.0
lattice,822,i,img/target_8.png,1,5,0.05000000074505806,1.0,1324.4324951171875,['i'],0.8039231300354004,a,821.0
lattice,823,o,img/target_9.png,1,3,0.05000000074505806,1.0,1325.330810546875,['o'],0.8817379474639893,a,822.0
lattice,824,q,img/target_1.png,1,2,0.05000000074505806,0.0,1326.314208984375,['q'],1.4589390754699707,a,823.0
lattice,825,b,img/target_6.png,1,0,0.05000000074505806,0.0,1327.84912109375,['b'],1.3002121448516846,a,824.0
lattice,826,r,img/target_4.png,1,9,0.05000000074505806,0.0,1329.2310791015625,['r'],1.373615026473999,a,825.0
lattice,827,u,img/target_7.png,1,8,0.05000000074505806,0.0,1330.681640625,['u'],1.450754165649414,a,826.0
lattice,828,b,img/target_6.png,1,0,0.05000000074505806,1.0,1332.21533203125,['b'],0.900831937789917,a,827.0
lattice,829,q,img/target_1.png,1,2,0.05000000074505806,1.0,1333.2161865234375,['q'],0.6444578170776367,a,828.0
lattice,830,v,img/target_5.png,1,1,0.05000000074505806,1.0,1333.948974609375,['v'],0.7842819690704346,a,829.0
lattice,831,o,img/target_9.png,1,3,0.05000000074505806,1.0,1334.832275390625,['o'],0.8197140693664551,a,830.0
lattice,832,q,img/target_1.png,1,2,0.05000000074505806,1.0,1335.750244140625,['q'],0.7657301425933838,a,831.0
lattice,833,w,img/target_2.png,1,4,0.05000000074505806,1.0,1336.6158447265625,['w'],0.7801649570465088,a,832.0
lattice,834,o,img/target_9.png,1,3,0.05000000074505806,1.0,1337.4814453125,['o'],0.8185310363769531,a,833.0
lattice,835,w,img/target_2.png,1,4,0.05000000074505806,1.0,1338.3983154296875,['w'],0.7738208770751953,a,834.0
lattice,836,o,img/target_9.png,1,3,0.05000000074505806,0.0,1339.26513671875,['o'],1.5306370258331299,a,835.0
lattice,837,v,img/target_5.png,1,1,0.05000000074505806,1.0,1340.8670654296875,['v'],0.9127950668334961,a,836.0
lattice,838,o,img/target_9.png,1,3,0.05000000074505806,0.0,1341.8665771484375,['o'],1.7055110931396484,a,837.0
lattice,839,q,img/target_1.png,1,2,0.05000000074505806,1.0,1343.6510009765625,['q'],0.9292550086975098,a,838.0
lattice,840,b,img/target_6.png,1,0,0.05000000074505806,1.0,1344.6666259765625,['b'],1.4811608791351318,a,839.0
lattice,841,u,img/target_7.png,1,8,0.05000000074505806,1.0,1346.232421875,['u'],1.0201711654663086,a,840.0
lattice,842,p,img/target_10.png,1,6,0.05000000074505806,1.0,1347.3492431640625,['p'],1.1750309467315674,a,841.0
lattice,843,e,img/target_3.png,1,7,0.05000000074505806,0.0,1348.6165771484375,['e'],3.27484393119812,a,842.0
lattice,844,u,img/target_7.png,1,8,0.05000000074505806,1.0,1351.96826171875,['u'],2.1710898876190186,a,843.0
lattice,845,b,img/target_6.png,1,0,0.05000000074505806,1.0,1354.234375,['b'],0.8009929656982422,a,844.0
lattice,846,q,img/target_1.png,1,2,0.05000000074505806,1.0,1355.1337890625,['q'],0.774928092956543,a,845.0
lattice,847,b,img/target_6.png,1,0,0.05000000074505806,1.0,1356.00048828125,['b'],0.6750221252441406,a,846.0
lattice,848,q,img/target_1.png,1,2,0.05000000074505806,1.0,1356.7705078125,['q'],0.8095998764038086,a,847.0
lattice,849,b,img/target_6.png,1,0,0.05000000074505806,1.0,1357.670654296875,['b'],0.7005360126495361,a,848.0
lattice,850,q,img/target_1.png,1,2,0.05000000074505806,1.0,1358.4671630859375,['q'],1.0801069736480713,a,849.0
lattice,851,b,img/target_6.png,1,0,0.05000000074505806,1.0,1359.6346435546875,['b'],0.7850289344787598,a,850.0
lattice,852,r,img/target_4.png,1,9,0.05000000074505806,0.0,1360.517333984375,['r'],5.285851955413818,a,851.0
lattice,853,e,img/target_3.png,1,7,0.05000000074505806,1.0,1365.884765625,['e'],0.7514159679412842,a,852.0
lattice,854,i,img/target_8.png,1,5,0.05000000074505806,1.0,1366.7352294921875,['i'],1.6597979068756104,a,853.0
lattice,855,e,img/target_3.png,1,7,0.05000000074505806,1.0,1368.488037109375,['e'],1.1230411529541016,a,854.0
lattice,856,i,img/target_8.png,1,5,0.05000000074505806,1.0,1369.70361328125,['i'],4.587777137756348,a,855.0
lattice,857,w,img/target_2.png,1,4,0.05000000074505806,1.0,1374.3857421875,['w'],2.38503098487854,a,856.0
lattice,858,i,img/target_8.png,1,5,0.05000000074505806,1.0,1376.869140625,['i'],1.053508996963501,a,857.0
lattice,859,o,img/target_9.png,1,3,0.05000000074505806,1.0,1378.01953125,['o'],0.8470940589904785,a,858.0
lattice,860,i,img/target_8.png,1,5,0.05000000074505806,1.0,1378.952880859375,['i'],0.6505470275878906,a,859.0
lattice,861,e,img/target_3.png,1,7,0.05000000074505806,1.0,1379.702392578125,['e'],1.164085865020752,a,860.0
lattice,862,r,img/target_4.png,1,9,0.05000000074505806,1.0,1380.9525146484375,['r'],1.0259108543395996,a,861.0
lattice,863,e,img/target_3.png,1,7,0.05000000074505806,1.0,1382.06982421875,['e'],0.7245898246765137,a,862.0
lattice,864,r,img/target_4.png,1,9,0.05000000074505806,1.0,1382.8865966796875,['r'],0.7242679595947266,a,863.0
lattice,865,b,img/target_6.png,1,0,0.05000000074505806,1.0,1383.70263671875,['b'],1.2919549942016602,a,864.0
lattice,866,v,img/target_5.png,1,1,0.05000000074505806,1.0,1385.0872802734375,['v'],1.3871490955352783,a,865.0
lattice,867,r,img/target_4.png,1,9,0.05000000074505806,1.0,1386.5706787109375,['r'],0.7600739002227783,a,866.0
lattice,868,e,img/target_3.png,1,7,0.05000000074505806,1.0,1387.419921875,['e'],0.9103379249572754,a,867.0
lattice,869,r,img/target_4.png,1,9,0.05000000074505806,1.0,1388.420654296875,['r'],0.8537728786468506,a,868.0
lattice,870,b,img/target_6.png,1,0,0.05000000074505806,1.0,1389.3740234375,['b'],1.3167901039123535,a,869.0
lattice,871,q,img/target_1.png,1,2,0.05000000074505806,1.0,1390.788330078125,['q'],0.71909499168396,a,870.0
lattice,872,w,img/target_2.png,1,4,0.05000000074505806,1.0,1391.6058349609375,['w'],0.7647230625152588,a,871.0
lattice,873,o,img/target_9.png,1,3,0.05000000074505806,1.0,1392.470458984375,['o'],1.1795618534088135,a,872.0
lattice,874,i,img/target_8.png,1,5,0.05000000074505806,1.0,1393.738525390625,['i'],0.8721320629119873,a,873.0
lattice,875,e,img/target_3.png,1,7,0.05000000074505806,1.0,1394.7061767578125,['e'],1.439743995666504,a,874.0
lattice,876,p,img/target_10.png,1,6,0.05000000074505806,1.0,1396.238525390625,['p'],1.0996060371398926,a,875.0
lattice,877,e,img/target_3.png,1,7,0.05000000074505806,1.0,1397.4384765625,['e'],0.7875158786773682,a,876.0
lattice,878,u,img/target_7.png,1,8,0.05000000074505806,1.0,1398.32275390625,['u'],0.7515559196472168,a,877.0
lattice,879,b,img/target_6.png,1,0,0.05000000074505806,1.0,1399.17431640625,['b'],0.7003159523010254,a,878.0
lattice,880,u,img/target_7.png,1,8,0.05000000074505806,1.0,1399.973388671875,['u'],0.8930408954620361,a,879.0
lattice,881,r,img/target_4.png,1,9,0.05000000074505806,1.0,1400.95654296875,['r'],0.7900049686431885,a,880.0
lattice,882,v,img/target_5.png,1,1,0.05000000074505806,1.0,1401.8392333984375,['v'],1.0107660293579102,a,881.0
lattice,883,b,img/target_6.png,1,0,0.05000000074505806,1.0,1402.93994140625,['b'],0.8377220630645752,a,882.0
lattice,884,v,img/target_5.png,1,1,0.05000000074505806,1.0,1403.8717041015625,['v'],0.666754961013794,a,883.0
lattice,885,o,img/target_9.png,1,3,0.05000000074505806,1.0,1404.6390380859375,['o'],0.618556022644043,a,884.0
lattice,886,w,img/target_2.png,1,4,0.05000000074505806,1.0,1405.3558349609375,['w'],0.8388700485229492,a,885.0
lattice,887,o,img/target_9.png,1,3,0.05000000074505806,1.0,1406.288330078125,['o'],0.8892550468444824,a,886.0
lattice,888,w,img/target_2.png,1,4,0.05000000074505806,1.0,1407.271484375,['w'],0.7461109161376953,a,887.0
lattice,889,p,img/target_10.png,1,6,0.05000000074505806,1.0,1408.1048583984375,['p'],1.024596929550171,a,888.0
lattice,890,e,img/target_3.png,1,7,0.05000000074505806,1.0,1409.222412109375,['e'],1.2831108570098877,a,889.0
lattice,891,u,img/target_7.png,1,8,0.05000000074505806,1.0,1410.6053466796875,['u'],0.772589921951294,a,890.0
lattice,892,e,img/target_3.png,1,7,0.05000000074505806,1.0,1411.472412109375,['e'],0.801055908203125,a,891.0
lattice,893,p,img/target_10.png,1,6,0.05000000074505806,1.0,1412.3719482421875,['p'],0.8294298648834229,a,892.0
lattice,894,e,img/target_3.png,1,7,0.05000000074505806,1.0,1413.29150390625,['e'],1.0698161125183105,a,893.0
lattice,895,r,img/target_4.png,1,9,0.05000000074505806,1.0,1414.4571533203125,['r'],0.9609119892120361,a,894.0
lattice,896,b,img/target_6.png,1,0,0.05000000074505806,1.0,1415.5059814453125,['b'],0.9033961296081543,a,895.0
lattice,897,q,img/target_1.png,1,2,0.05000000074505806,1.0,1416.50634765625,['q'],1.0149991512298584,a,896.0
lattice,898,b,img/target_6.png,1,0,0.05000000074505806,1.0,1417.6060791015625,['b'],1.8513450622558594,a,897.0
lattice,899,r,img/target_4.png,1,9,0.05000000074505806,1.0,1419.55712890625,['r'],0.7161769866943359,a,898.0
lattice,900,b,img/target_6.png,1,0,0.05000000074505806,1.0,1420.373779296875,['b'],0.9633700847625732,a,899.0
lattice,901,q,img/target_1.png,1,2,0.05000000074505806,1.0,1421.4232177734375,['q'],0.9779250621795654,a,900.0
lattice,902,b,img/target_6.png,1,0,0.05000000074505806,1.0,1422.490478515625,['b'],3.7984020709991455,a,901.0
lattice,903,u,img/target_7.png,1,8,0.05000000074505806,1.0,1426.3736572265625,['u'],0.67535400390625,a,902.0
lattice,904,p,img/target_10.png,1,6,0.05000000074505806,1.0,1427.1412353515625,['p'],0.8357501029968262,a,903.0
lattice,905,i,img/target_8.png,1,5,0.05000000074505806,1.0,1428.0738525390625,['i'],1.2475998401641846,a,904.0
lattice,906,p,img/target_10.png,1,6,0.05000000074505806,1.0,1429.40771484375,['p'],0.9369771480560303,a,905.0
lattice,907,e,img/target_3.png,1,7,0.05000000074505806,1.0,1430.4410400390625,['e'],1.7356739044189453,a,906.0
lattice,908,u,img/target_7.png,1,8,0.05000000074505806,1.0,1432.277587890625,['u'],0.9711558818817139,a,907.0
lattice,909,p,img/target_10.png,1,6,0.05000000074505806,1.0,1433.341552734375,['p'],0.9642801284790039,a,908.0
lattice,910,w,img/target_2.png,1,4,0.05000000074505806,1.0,1434.4075927734375,['w'],1.2744309902191162,a,909.0
lattice,911,q,img/target_1.png,1,2,0.05000000074505806,1.0,1435.77490234375,['q'],1.3057410717010498,a,910.0
