graph,trialNum,resp,path,pID,walk,ISI_raw,correct_raw,onset_raw,resp_raw,rt_raw,typing_raw,order
lattice,1,w,img/target_2.png,3,6,0.05000000074505806,0.0,0.014256000518798828,['w'],9.915179252624512,a,0.0
lattice,2,o,img/target_9.png,3,4,0.05000000074505806,1.0,10.018291473388672,['o'],5.1519317626953125,a,1.0
lattice,3,v,img/target_5.png,3,2,0.05000000074505806,1.0,15.269041061401367,['v'],3.3640730381011963,a,2.0
lattice,4,o,img/target_9.png,3,4,0.05000000074505806,1.0,18.732158660888672,['o'],4.2619171142578125,a,3.0
lattice,5,w,img/target_2.png,3,6,0.05000000074505806,1.0,23.08058738708496,['w'],3.336992025375366,a,4.0
lattice,6,r,img/target_4.png,3,7,0.05000000074505806,1.0,26.51723861694336,['r'],1.9238090515136719,a,5.0
lattice,7,b,img/target_6.png,3,5,0.05000000074505806,0.0,28.534095764160156,['b'],18.41131591796875,a,6.0
lattice,8,r,img/target_4.png,3,7,0.05000000074505806,1.0,47.01582336425781,['r'],5.9442548751831055,a,7.0
lattice,9,e,img/target_3.png,3,9,0.05000000074505806,1.0,53.0532112121582,['e'],2.39479398727417,a,8.0
lattice,10,i,img/target_8.png,3,0,0.05000000074505806,1.0,55.5397834777832,['i'],3.8520078659057617,a,9.0
lattice,11,u,img/target_7.png,3,8,0.05000000074505806,1.0,59.48888397216797,['u'],1.1506569385528564,a,10.0
lattice,12,e,img/target_3.png,3,9,0.05000000074505806,1.0,60.73480987548828,['e'],3.368781089782715,a,11.0
lattice,13,q,img/target_1.png,3,1,0.05000000074505806,1.0,64.20394134521484,['q'],2.236902952194214,a,12.0
lattice,14,p,img/target_10.png,3,3,0.05000000074505806,1.0,66.53976440429688,['p'],3.3317651748657227,a,13.0
lattice,15,v,img/target_5.png,3,2,0.05000000074505806,1.0,69.96873474121094,['v'],16.382211685180664,a,14.0
lattice,16,q,img/target_1.png,3,1,0.05000000074505806,1.0,86.4360580444336,['q'],1.9396700859069824,a,15.0
lattice,17,p,img/target_10.png,3,3,0.05000000074505806,1.0,88.47013854980469,['p'],2.017672061920166,a,16.0
lattice,18,b,img/target_6.png,3,5,0.05000000074505806,1.0,90.58761596679688,['b'],2.92340087890625,a,17.0
lattice,19,w,img/target_2.png,3,6,0.05000000074505806,1.0,93.60356140136719,['w'],2.9637839794158936,a,18.0
lattice,20,r,img/target_4.png,3,7,0.05000000074505806,1.0,96.65341186523438,['r'],2.297313928604126,a,19.0
lattice,21,w,img/target_2.png,3,6,0.05000000074505806,1.0,99.03955841064453,['w'],4.390813827514648,a,20.0
lattice,22,r,img/target_4.png,3,7,0.05000000074505806,0.0,103.52220916748047,['r'],16.62775230407715,a,21.0
lattice,23,w,img/target_2.png,3,6,0.05000000074505806,1.0,120.22321319580078,['w'],7.735306739807129,a,22.0
lattice,24,b,img/target_6.png,3,5,0.05000000074505806,0.0,128.05770874023438,['b'],12.811565399169922,a,23.0
lattice,25,o,img/target_9.png,3,4,0.05000000074505806,1.0,140.942138671875,['o'],1.80708909034729,a,24.0
lattice,26,p,img/target_10.png,3,3,0.05000000074505806,1.0,142.84169006347656,['p'],1.3313329219818115,a,25.0
lattice,27,o,img/target_9.png,3,4,0.05000000074505806,1.0,144.25892639160156,['o'],1.0341241359710693,a,26.0
lattice,28,p,img/target_10.png,3,3,0.05000000074505806,1.0,145.39309692382812,['p'],1.0692739486694336,a,27.0
lattice,29,o,img/target_9.png,3,4,0.05000000074505806,1.0,146.56304931640625,['o'],0.7459080219268799,a,28.0
lattice,30,p,img/target_10.png,3,3,0.05000000074505806,0.0,147.41209411621094,['p'],12.417705535888672,a,29.0
lattice,31,o,img/target_9.png,3,4,0.05000000074505806,1.0,159.91055297851562,['o'],1.694066047668457,a,30.0
lattice,32,w,img/target_2.png,3,6,0.05000000074505806,1.0,161.6936492919922,['w'],2.9917969703674316,a,31.0
lattice,33,u,img/target_7.png,3,8,0.05000000074505806,1.0,164.7783660888672,['u'],3.011075019836426,a,32.0
lattice,34,e,img/target_3.png,3,9,0.05000000074505806,1.0,167.87852478027344,['e'],2.5818490982055664,a,33.0
lattice,35,q,img/target_1.png,3,1,0.05000000074505806,1.0,170.54542541503906,['q'],2.5311520099639893,a,34.0
lattice,36,i,img/target_8.png,3,0,0.05000000074505806,1.0,173.1621551513672,['i'],6.081939697265625,a,35.0
lattice,37,q,img/target_1.png,3,1,0.05000000074505806,1.0,179.32960510253906,['q'],4.7151570320129395,a,36.0
lattice,38,v,img/target_5.png,3,2,0.05000000074505806,1.0,184.14581298828125,['v'],4.363015174865723,a,37.0
lattice,39,o,img/target_9.png,3,4,0.05000000074505806,1.0,188.59616088867188,['o'],14.272442817687988,a,38.0
lattice,40,v,img/target_5.png,3,2,0.05000000074505806,1.0,202.96592712402344,['v'],5.086068153381348,a,39.0
lattice,41,o,img/target_9.png,3,4,0.05000000074505806,1.0,208.14854431152344,['o'],5.383055210113525,a,40.0
lattice,42,p,img/target_10.png,3,3,0.05000000074505806,1.0,213.6330108642578,['p'],3.097809076309204,a,41.0
lattice,43,b,img/target_6.png,3,5,0.05000000074505806,1.0,216.81553649902344,['b'],1.9080979824066162,a,42.0
lattice,44,p,img/target_10.png,3,3,0.05000000074505806,1.0,218.81675720214844,['p'],4.075257301330566,a,43.0
lattice,45,o,img/target_9.png,3,4,0.05000000074505806,1.0,222.98306274414062,['o'],2.011569023132324,a,44.0
lattice,46,p,img/target_10.png,3,3,0.05000000074505806,0.0,225.0841827392578,['p'],10.23100471496582,a,45.0
lattice,47,q,img/target_1.png,3,1,0.05000000074505806,1.0,235.3855743408203,['q'],4.225216865539551,a,46.0
lattice,48,p,img/target_10.png,3,3,0.05000000074505806,1.0,239.70217895507812,['p'],2.5398850440979004,a,47.0
lattice,49,b,img/target_6.png,3,5,0.05000000074505806,1.0,242.33837890625,['b'],3.7755539417266846,a,48.0
lattice,50,r,img/target_4.png,3,7,0.05000000074505806,1.0,246.20318603515625,['r'],2.494706153869629,a,49.0
lattice,51,u,img/target_7.png,3,8,0.05000000074505806,1.0,248.7862548828125,['u'],2.303574800491333,a,50.0
lattice,52,e,img/target_3.png,3,9,0.05000000074505806,1.0,251.1870880126953,['e'],3.3264570236206055,a,51.0
lattice,53,r,img/target_4.png,3,7,0.05000000074505806,1.0,254.60267639160156,['r'],1.654857873916626,a,52.0
lattice,54,e,img/target_3.png,3,9,0.05000000074505806,1.0,256.3539123535156,['e'],1.6874849796295166,a,53.0
lattice,55,r,img/target_4.png,3,7,0.05000000074505806,1.0,258.1372375488281,['r'],1.0563859939575195,a,54.0
lattice,56,u,img/target_7.png,3,8,0.05000000074505806,1.0,259.2877197265625,['u'],2.817707061767578,a,55.0
lattice,57,r,img/target_4.png,3,7,0.05000000074505806,1.0,262.2080078125,['r'],2.201201915740967,a,56.0
lattice,58,w,img/target_2.png,3,6,0.05000000074505806,1.0,264.5042724609375,['w'],2.297039031982422,a,57.0
lattice,59,o,img/target_9.png,3,4,0.05000000074505806,1.0,266.88751220703125,['o'],3.3936049938201904,a,58.0
lattice,60,v,img/target_5.png,3,2,0.05000000074505806,1.0,270.37188720703125,['v'],20.444774627685547,a,59.0
lattice,61,o,img/target_9.png,3,4,0.05000000074505806,1.0,290.9071960449219,['o'],3.853256940841675,a,60.0
lattice,62,b,img/target_6.png,3,5,0.05000000074505806,1.0,294.859375,['b'],15.053459167480469,a,61.0
lattice,63,r,img/target_4.png,3,7,0.05000000074505806,1.0,310.0083923339844,['r'],2.159337043762207,a,62.0
lattice,64,w,img/target_2.png,3,6,0.05000000074505806,1.0,312.26263427734375,['w'],2.6660499572753906,a,63.0
lattice,65,u,img/target_7.png,3,8,0.05000000074505806,1.0,315.0262145996094,['u'],2.3493399620056152,a,64.0
lattice,66,e,img/target_3.png,3,9,0.05000000074505806,0.0,317.4762878417969,['e'],9.340099334716797,a,65.0
lattice,67,r,img/target_4.png,3,7,0.05000000074505806,1.0,326.89422607421875,['r'],2.6169750690460205,a,66.0
lattice,68,u,img/target_7.png,3,8,0.05000000074505806,1.0,329.6108093261719,['u'],2.220210075378418,a,67.0
lattice,69,e,img/target_3.png,3,9,0.05000000074505806,1.0,331.9282531738281,['e'],4.023645401000977,a,68.0
lattice,70,i,img/target_8.png,3,0,0.05000000074505806,1.0,336.0450134277344,['i'],8.58585262298584,a,69.0
lattice,71,v,img/target_5.png,3,2,0.05000000074505806,1.0,344.72918701171875,['v'],3.7264819145202637,a,70.0
lattice,72,q,img/target_1.png,3,1,0.05000000074505806,1.0,348.54608154296875,['q'],2.2056660652160645,a,71.0
lattice,73,p,img/target_10.png,3,3,0.05000000074505806,1.0,350.8463134765625,['p'],1.4484949111938477,a,72.0
lattice,74,b,img/target_6.png,3,5,0.05000000074505806,1.0,352.3807067871094,['b'],2.705787181854248,a,73.0
lattice,75,w,img/target_2.png,3,6,0.05000000074505806,1.0,355.1794738769531,['w'],1.699195146560669,a,74.0
lattice,76,r,img/target_4.png,3,7,0.05000000074505806,1.0,356.9640197753906,['r'],2.8982532024383545,a,75.0
lattice,77,u,img/target_7.png,3,8,0.05000000074505806,1.0,359.94720458984375,['u'],2.866956949234009,a,76.0
lattice,78,i,img/target_8.png,3,0,0.05000000074505806,1.0,362.9143371582031,['i'],7.467568397521973,a,77.0
lattice,79,u,img/target_7.png,3,8,0.05000000074505806,1.0,370.4804992675781,['u'],2.5106890201568604,a,78.0
lattice,80,r,img/target_4.png,3,7,0.05000000074505806,1.0,373.0816345214844,['r'],1.7810280323028564,a,79.0
lattice,81,w,img/target_2.png,3,6,0.05000000074505806,1.0,374.9654846191406,['w'],1.8241300582885742,a,80.0
lattice,82,u,img/target_7.png,3,8,0.05000000074505806,1.0,376.88250732421875,['u'],2.4281158447265625,a,81.0
lattice,83,e,img/target_3.png,3,9,0.05000000074505806,1.0,379.3990478515625,['e'],3.862522840499878,a,82.0
lattice,84,q,img/target_1.png,3,1,0.05000000074505806,1.0,383.3500061035156,['q'],2.1354610919952393,a,83.0
lattice,85,i,img/target_8.png,3,0,0.05000000074505806,1.0,385.5833740234375,['i'],2.28598690032959,a,84.0
lattice,86,v,img/target_5.png,3,2,0.05000000074505806,1.0,387.9689025878906,['v'],2.0376760959625244,a,85.0
lattice,87,o,img/target_9.png,3,4,0.05000000074505806,1.0,390.0998840332031,['o'],3.001433849334717,a,86.0
lattice,88,b,img/target_6.png,3,5,0.05000000074505806,1.0,393.20074462890625,['b'],3.284406900405884,a,87.0
lattice,89,p,img/target_10.png,3,3,0.05000000074505806,1.0,396.5838928222656,['p'],2.3821229934692383,a,88.0
lattice,90,v,img/target_5.png,3,2,0.05000000074505806,1.0,399.0687561035156,['v'],3.1211700439453125,a,89.0
lattice,91,i,img/target_8.png,3,0,0.05000000074505806,1.0,402.2848205566406,['i'],3.193052053451538,a,90.0
lattice,92,q,img/target_1.png,3,1,0.05000000074505806,1.0,405.568359375,['q'],1.9011600017547607,a,91.0
lattice,93,i,img/target_8.png,3,0,0.05000000074505806,1.0,407.5686950683594,['i'],2.9731979370117188,a,92.0
lattice,94,q,img/target_1.png,3,1,0.05000000074505806,1.0,410.6356506347656,['q'],3.0181970596313477,a,93.0
lattice,95,v,img/target_5.png,3,2,0.05000000074505806,1.0,413.7560119628906,['v'],1.857438087463379,a,94.0
lattice,96,p,img/target_10.png,3,3,0.05000000074505806,1.0,415.70306396484375,['p'],1.5822639465332031,a,95.0
lattice,97,q,img/target_1.png,3,1,0.05000000074505806,1.0,417.3864440917969,['q'],3.7467920780181885,a,96.0
lattice,98,e,img/target_3.png,3,9,0.05000000074505806,1.0,421.23712158203125,['e'],7.383158206939697,a,97.0
lattice,99,u,img/target_7.png,3,8,0.05000000074505806,0.0,428.7212219238281,['u'],11.810647010803223,a,98.0
lattice,100,w,img/target_2.png,3,6,0.05000000074505806,1.0,440.6059875488281,['w'],6.589902877807617,a,99.0
lattice,101,b,img/target_6.png,3,5,0.05000000074505806,1.0,447.2893371582031,['b'],4.754423141479492,a,100.0
lattice,102,r,img/target_4.png,3,7,0.05000000074505806,1.0,452.1388854980469,['r'],2.905359983444214,a,101.0
lattice,103,b,img/target_6.png,3,5,0.05000000074505806,1.0,455.139892578125,['b'],1.9756650924682617,a,102.0
lattice,104,w,img/target_2.png,3,6,0.05000000074505806,1.0,457.2071533203125,['w'],3.2209060192108154,a,103.0
lattice,105,b,img/target_6.png,3,5,0.05000000074505806,1.0,460.52734375,['b'],1.308777093887329,a,104.0
lattice,106,p,img/target_10.png,3,3,0.05000000074505806,1.0,461.9237365722656,['p'],1.759291172027588,a,105.0
lattice,107,o,img/target_9.png,3,4,0.05000000074505806,1.0,463.7742919921875,['o'],1.957834005355835,a,106.0
lattice,108,w,img/target_2.png,3,6,0.05000000074505806,1.0,465.8241882324219,['w'],3.1159470081329346,a,107.0
lattice,109,o,img/target_9.png,3,4,0.05000000074505806,1.0,469.0414123535156,['o'],2.202565908432007,a,108.0
lattice,110,w,img/target_2.png,3,6,0.05000000074505806,1.0,471.3416748046875,['w'],0.8058531284332275,a,109.0
lattice,111,r,img/target_4.png,3,7,0.05000000074505806,1.0,472.24114990234375,['r'],1.5215339660644531,a,110.0
lattice,112,u,img/target_7.png,3,8,0.05000000074505806,1.0,473.85858154296875,['u'],14.280322074890137,a,111.0
lattice,113,w,img/target_2.png,3,6,0.05000000074505806,1.0,488.22662353515625,['w'],1.5764951705932617,a,112.0
lattice,114,b,img/target_6.png,3,5,0.05000000074505806,1.0,489.8933410644531,['b'],2.2615249156951904,a,113.0
lattice,115,r,img/target_4.png,3,7,0.05000000074505806,1.0,492.2435302734375,['r'],1.8864140510559082,a,114.0
lattice,116,e,img/target_3.png,3,9,0.05000000074505806,1.0,494.2271728515625,['e'],2.0160961151123047,a,115.0
lattice,117,u,img/target_7.png,3,8,0.05000000074505806,1.0,496.34429931640625,['u'],2.3624370098114014,a,116.0
lattice,118,w,img/target_2.png,3,6,0.05000000074505806,1.0,498.7935791015625,['w'],1.6971039772033691,a,117.0
lattice,119,b,img/target_6.png,3,5,0.05000000074505806,1.0,500.5779113769531,['b'],1.6651201248168945,a,118.0
lattice,120,r,img/target_4.png,3,7,0.05000000074505806,1.0,502.3449401855469,['r'],1.8418240547180176,a,119.0
lattice,121,e,img/target_3.png,3,9,0.05000000074505806,1.0,504.27716064453125,['e'],1.4695539474487305,a,120.0
lattice,122,r,img/target_4.png,3,7,0.05000000074505806,1.0,505.8453674316406,['r'],1.4200801849365234,a,121.0
lattice,123,w,img/target_2.png,3,6,0.05000000074505806,1.0,507.36212158203125,['w'],1.6242520809173584,a,122.0
lattice,124,r,img/target_4.png,3,7,0.05000000074505806,1.0,509.07794189453125,['r'],2.8833789825439453,a,123.0
lattice,125,w,img/target_2.png,3,6,0.05000000074505806,1.0,512.0623168945312,['w'],1.1159939765930176,a,124.0
lattice,126,o,img/target_9.png,3,4,0.05000000074505806,1.0,513.27880859375,['o'],1.5157270431518555,a,125.0
lattice,127,w,img/target_2.png,3,6,0.05000000074505806,1.0,514.89501953125,['w'],9.194128036499023,a,126.0
lattice,128,b,img/target_6.png,3,5,0.05000000074505806,1.0,524.1792602539062,['b'],2.84639310836792,a,127.0
lattice,129,w,img/target_2.png,3,6,0.05000000074505806,1.0,527.1137084960938,['w'],2.1352269649505615,a,128.0
lattice,130,u,img/target_7.png,3,8,0.05000000074505806,1.0,529.347412109375,['u'],1.4301059246063232,a,129.0
lattice,131,w,img/target_2.png,3,6,0.05000000074505806,1.0,530.8641967773438,['w'],3.808387041091919,a,130.0
lattice,132,r,img/target_4.png,3,7,0.05000000074505806,1.0,534.7642822265625,['r'],1.8933980464935303,a,131.0
lattice,133,w,img/target_2.png,3,6,0.05000000074505806,1.0,536.7479858398438,['w'],4.7964301109313965,a,132.0
lattice,134,r,img/target_4.png,3,7,0.05000000074505806,1.0,541.631591796875,['r'],0.8898699283599854,a,133.0
lattice,135,w,img/target_2.png,3,6,0.05000000074505806,1.0,542.615234375,['w'],1.105104923248291,a,134.0
lattice,136,r,img/target_4.png,3,7,0.05000000074505806,1.0,543.8155517578125,['r'],0.7287120819091797,a,135.0
lattice,137,w,img/target_2.png,3,6,0.05000000074505806,1.0,544.6321411132812,['w'],0.7761530876159668,a,136.0
lattice,138,o,img/target_9.png,3,4,0.05000000074505806,1.0,545.4990234375,['o'],1.9825890064239502,a,137.0
lattice,139,w,img/target_2.png,3,6,0.05000000074505806,1.0,547.582763671875,['w'],4.737353324890137,a,138.0
lattice,140,b,img/target_6.png,3,5,0.05000000074505806,1.0,552.4164428710938,['b'],2.6967339515686035,a,139.0
lattice,141,r,img/target_4.png,3,7,0.05000000074505806,1.0,555.2156372070312,['r'],1.4972782135009766,a,140.0
lattice,142,w,img/target_2.png,3,6,0.05000000074505806,1.0,556.8001708984375,['w'],1.8888740539550781,a,141.0
lattice,143,b,img/target_6.png,3,5,0.05000000074505806,1.0,558.7852172851562,['b'],5.255904197692871,a,142.0
lattice,144,o,img/target_9.png,3,4,0.05000000074505806,0.0,564.1340942382812,['o'],6.417402267456055,a,143.0
lattice,145,w,img/target_2.png,3,6,0.05000000074505806,1.0,570.6339111328125,['w'],2.9027998447418213,a,144.0
lattice,146,b,img/target_6.png,3,5,0.05000000074505806,1.0,573.635009765625,['b'],3.093372106552124,a,145.0
lattice,147,r,img/target_4.png,3,7,0.05000000074505806,1.0,576.81787109375,['r'],1.7738749980926514,a,146.0
lattice,148,b,img/target_6.png,3,5,0.05000000074505806,1.0,578.6845703125,['b'],3.923651933670044,a,147.0
lattice,149,o,img/target_9.png,3,4,0.05000000074505806,1.0,582.7026977539062,['o'],4.320417881011963,a,148.0
lattice,150,b,img/target_6.png,3,5,0.05000000074505806,1.0,587.1187744140625,['b'],2.233386993408203,a,149.0
lattice,151,r,img/target_4.png,3,7,0.05000000074505806,1.0,589.4517211914062,['r'],1.579179048538208,a,150.0
lattice,152,b,img/target_6.png,3,5,0.05000000074505806,1.0,591.1203002929688,['b'],1.8398380279541016,a,151.0
lattice,153,o,img/target_9.png,3,4,0.05000000074505806,1.0,593.0537109375,['o'],4.489919662475586,a,152.0
lattice,154,p,img/target_10.png,3,3,0.05000000074505806,1.0,597.6366577148438,['p'],2.091219186782837,a,153.0
lattice,155,b,img/target_6.png,3,5,0.05000000074505806,1.0,599.8208618164062,['b'],2.761780023574829,a,154.0
lattice,156,w,img/target_2.png,3,6,0.05000000074505806,1.0,602.6703491210938,['w'],3.2407119274139404,a,155.0
lattice,157,b,img/target_6.png,3,5,0.05000000074505806,1.0,606.0040283203125,['b'],1.9463770389556885,a,156.0
lattice,158,w,img/target_2.png,3,6,0.05000000074505806,1.0,608.03759765625,['w'],1.1853549480438232,a,157.0
lattice,159,o,img/target_9.png,3,4,0.05000000074505806,1.0,609.3253784179688,['o'],4.104806900024414,a,158.0
lattice,160,v,img/target_5.png,3,2,0.05000000074505806,1.0,613.5223999023438,['v'],2.74896502494812,a,159.0
lattice,161,q,img/target_1.png,3,1,0.05000000074505806,1.0,616.3724975585938,['q'],3.1696488857269287,a,160.0
lattice,162,i,img/target_8.png,3,0,0.05000000074505806,1.0,619.6397705078125,['i'],2.3343119621276855,a,161.0
lattice,163,u,img/target_7.png,3,8,0.05000000074505806,0.0,622.0732421875,['u'],12.308795928955078,a,162.0
lattice,164,e,img/target_3.png,3,9,0.05000000074505806,1.0,634.4573364257812,['e'],3.181178092956543,a,163.0
lattice,165,r,img/target_4.png,3,7,0.05000000074505806,1.0,637.7406616210938,['r'],11.024694442749023,a,164.0
lattice,166,b,img/target_6.png,3,5,0.05000000074505806,1.0,648.8583984375,['b'],2.811939001083374,a,165.0
lattice,167,p,img/target_10.png,3,3,0.05000000074505806,1.0,651.76171875,['p'],3.2922768592834473,a,166.0
lattice,168,q,img/target_1.png,3,1,0.05000000074505806,1.0,655.142578125,['q'],1.6632399559020996,a,167.0
lattice,169,i,img/target_8.png,3,0,0.05000000074505806,1.0,656.8928833007812,['i'],5.399657249450684,a,168.0
lattice,170,q,img/target_1.png,3,1,0.05000000074505806,1.0,662.376220703125,['q'],3.5336480140686035,a,169.0
lattice,171,e,img/target_3.png,3,9,0.05000000074505806,1.0,666.0104370117188,['e'],2.8659138679504395,a,170.0
lattice,172,q,img/target_1.png,3,1,0.05000000074505806,1.0,668.9608154296875,['q'],1.2835688591003418,a,171.0
lattice,173,p,img/target_10.png,3,3,0.05000000074505806,1.0,670.3475952148438,['p'],2.9297878742218018,a,172.0
lattice,174,b,img/target_6.png,3,5,0.05000000074505806,1.0,673.37744140625,['b'],2.9148290157318115,a,173.0
lattice,175,r,img/target_4.png,3,7,0.05000000074505806,1.0,676.3786010742188,['r'],3.7303080558776855,a,174.0
lattice,176,e,img/target_3.png,3,9,0.05000000074505806,1.0,680.2127075195312,['e'],1.5753741264343262,a,175.0
lattice,177,q,img/target_1.png,3,1,0.05000000074505806,1.0,681.8788452148438,['q'],1.2211439609527588,a,176.0
lattice,178,i,img/target_8.png,3,0,0.05000000074505806,1.0,683.1962890625,['i'],1.751607894897461,a,177.0
lattice,179,u,img/target_7.png,3,8,0.05000000074505806,1.0,685.0462036132812,['u'],1.5825421810150146,a,178.0
lattice,180,e,img/target_3.png,3,9,0.05000000074505806,1.0,686.7291259765625,['e'],4.147525787353516,a,179.0
lattice,181,i,img/target_8.png,3,0,0.05000000074505806,1.0,690.980224609375,['i'],2.832534074783325,a,180.0
lattice,182,v,img/target_5.png,3,2,0.05000000074505806,1.0,693.9149780273438,['v'],2.4087400436401367,a,181.0
lattice,183,q,img/target_1.png,3,1,0.05000000074505806,1.0,696.4136962890625,['q'],2.2950551509857178,a,182.0
lattice,184,i,img/target_8.png,3,0,0.05000000074505806,1.0,698.7966918945312,['i'],2.079875946044922,a,183.0
lattice,185,q,img/target_1.png,3,1,0.05000000074505806,1.0,700.9639282226562,['q'],2.032496213912964,a,184.0
lattice,186,e,img/target_3.png,3,9,0.05000000074505806,1.0,703.0980834960938,['e'],4.626041412353516,a,185.0
lattice,187,u,img/target_7.png,3,8,0.05000000074505806,1.0,707.8148803710938,['u'],3.4374308586120605,a,186.0
lattice,188,w,img/target_2.png,3,6,0.05000000074505806,1.0,711.3493041992188,['w'],3.5095908641815186,a,187.0
lattice,189,b,img/target_6.png,3,5,0.05000000074505806,1.0,714.9489135742188,['b'],2.862860918045044,a,188.0
lattice,190,p,img/target_10.png,3,3,0.05000000074505806,1.0,717.898193359375,['p'],2.633212089538574,a,189.0
lattice,191,v,img/target_5.png,3,2,0.05000000074505806,1.0,720.6326904296875,['v'],2.386960983276367,a,190.0
lattice,192,q,img/target_1.png,3,1,0.05000000074505806,1.0,723.1180419921875,['q'],1.1645150184631348,a,191.0
lattice,193,p,img/target_10.png,3,3,0.05000000074505806,1.0,724.3822631835938,['p'],1.9723401069641113,a,192.0
lattice,194,q,img/target_1.png,3,1,0.05000000074505806,1.0,726.4503173828125,['q'],1.0008740425109863,a,193.0
lattice,195,p,img/target_10.png,3,3,0.05000000074505806,1.0,727.5512084960938,['p'],1.2680070400238037,a,194.0
lattice,196,q,img/target_1.png,3,1,0.05000000074505806,1.0,728.9166259765625,['q'],1.2298040390014648,a,195.0
lattice,197,i,img/target_8.png,3,0,0.05000000074505806,1.0,730.2328491210938,['i'],3.826160192489624,a,196.0
lattice,198,u,img/target_7.png,3,8,0.05000000074505806,1.0,734.1508178710938,['u'],1.4597980976104736,a,197.0
lattice,199,e,img/target_3.png,3,9,0.05000000074505806,1.0,735.7011108398438,['e'],14.469813346862793,a,198.0
lattice,200,q,img/target_1.png,3,1,0.05000000074505806,1.0,750.268310546875,['q'],2.63759708404541,a,199.0
lattice,201,e,img/target_3.png,3,9,0.05000000074505806,1.0,753.0029296875,['e'],2.5838310718536377,a,200.0
lattice,202,q,img/target_1.png,3,1,0.05000000074505806,1.0,755.6862182617188,['q'],1.363400936126709,a,201.0
lattice,203,v,img/target_5.png,3,2,0.05000000074505806,1.0,757.1359252929688,['v'],2.5065371990203857,a,202.0
lattice,204,o,img/target_9.png,3,4,0.05000000074505806,1.0,759.7357177734375,['o'],3.7457680702209473,a,203.0
lattice,205,v,img/target_5.png,3,2,0.05000000074505806,1.0,763.5706787109375,['v'],2.870851993560791,a,204.0
lattice,206,q,img/target_1.png,3,1,0.05000000074505806,1.0,766.5372314453125,['q'],4.279938697814941,a,205.0
lattice,207,i,img/target_8.png,3,0,0.05000000074505806,1.0,770.9044799804688,['i'],2.4245400428771973,a,206.0
lattice,208,e,img/target_3.png,3,9,0.05000000074505806,1.0,773.4224243164062,['e'],5.411860942840576,a,207.0
lattice,209,r,img/target_4.png,3,7,0.05000000074505806,1.0,778.9224853515625,['r'],2.478304147720337,a,208.0
lattice,210,b,img/target_6.png,3,5,0.05000000074505806,1.0,781.488525390625,['b'],2.4401590824127197,a,209.0
lattice,211,w,img/target_2.png,3,6,0.05000000074505806,1.0,784.0226440429688,['w'],4.395059108734131,a,210.0
lattice,212,o,img/target_9.png,3,4,0.05000000074505806,0.0,788.506103515625,['o'],56.772743225097656,a,211.0
lattice,213,p,img/target_10.png,3,3,0.05000000074505806,1.0,845.361328125,['p'],5.094339847564697,a,212.0
lattice,214,b,img/target_6.png,3,5,0.05000000074505806,1.0,850.5474243164062,['b'],11.939024925231934,a,213.0
lattice,215,o,img/target_9.png,3,4,0.05000000074505806,1.0,862.5831909179688,['o'],9.598962783813477,a,214.0
lattice,216,p,img/target_10.png,3,3,0.05000000074505806,1.0,872.2811279296875,['p'],3.9099230766296387,a,215.0
lattice,217,v,img/target_5.png,3,2,0.05000000074505806,1.0,876.2814331054688,['v'],1.8134129047393799,a,216.0
lattice,218,i,img/target_8.png,3,0,0.05000000074505806,0.0,878.1983032226562,['i'],5.296444892883301,a,217.0
lattice,219,v,img/target_5.png,3,2,0.05000000074505806,1.0,883.5661010742188,['v'],2.71946120262146,a,218.0
lattice,220,o,img/target_9.png,3,4,0.05000000074505806,1.0,886.3824462890625,['o'],3.2150118350982666,a,219.0
lattice,221,w,img/target_2.png,3,6,0.05000000074505806,1.0,889.683349609375,['w'],2.163029193878174,a,220.0
lattice,222,b,img/target_6.png,3,5,0.05000000074505806,1.0,891.9495239257812,['b'],2.4796388149261475,a,221.0
lattice,223,p,img/target_10.png,3,3,0.05000000074505806,1.0,894.5196533203125,['p'],1.4540629386901855,a,222.0
lattice,224,o,img/target_9.png,3,4,0.05000000074505806,1.0,896.0670166015625,['o'],1.411350965499878,a,223.0
lattice,225,b,img/target_6.png,3,5,0.05000000074505806,1.0,897.566650390625,['b'],3.007256031036377,a,224.0
lattice,226,o,img/target_9.png,3,4,0.05000000074505806,0.0,900.6669311523438,['o'],11.49061393737793,a,225.0
lattice,227,v,img/target_5.png,3,2,0.05000000074505806,1.0,912.234619140625,['v'],4.53134298324585,a,226.0
lattice,228,i,img/target_8.png,3,0,0.05000000074505806,1.0,916.8690185546875,['i'],4.544547080993652,a,227.0
lattice,229,u,img/target_7.png,3,8,0.05000000074505806,1.0,921.5035400390625,['u'],1.3014211654663086,a,228.0
lattice,230,r,img/target_4.png,3,7,0.05000000074505806,1.0,922.9028930664062,['r'],2.6065170764923096,a,229.0
lattice,231,b,img/target_6.png,3,5,0.05000000074505806,1.0,925.60302734375,['b'],2.3704721927642822,a,230.0
lattice,232,r,img/target_4.png,3,7,0.05000000074505806,1.0,928.0697631835938,['r'],1.2157039642333984,a,231.0
lattice,233,w,img/target_2.png,3,6,0.05000000074505806,1.0,929.3866577148438,['w'],2.3142940998077393,a,232.0
lattice,234,u,img/target_7.png,3,8,0.05000000074505806,1.0,931.8029174804688,['u'],2.193972110748291,a,233.0
lattice,235,e,img/target_3.png,3,9,0.05000000074505806,1.0,934.0860595703125,['e'],3.2700858116149902,a,234.0
lattice,236,i,img/target_8.png,3,0,0.05000000074505806,1.0,937.4540405273438,['i'],2.349743127822876,a,235.0
lattice,237,u,img/target_7.png,3,8,0.05000000074505806,1.0,939.903564453125,['u'],2.788179874420166,a,236.0
lattice,238,r,img/target_4.png,3,7,0.05000000074505806,1.0,942.7876586914062,['r'],1.6560227870941162,a,237.0
lattice,239,b,img/target_6.png,3,5,0.05000000074505806,1.0,944.5369873046875,['b'],2.3720250129699707,a,238.0
lattice,240,p,img/target_10.png,3,3,0.05000000074505806,1.0,947.0050659179688,['p'],1.4634249210357666,a,239.0
lattice,241,o,img/target_9.png,3,4,0.05000000074505806,1.0,948.5718994140625,['o'],1.5688037872314453,a,240.0
lattice,242,v,img/target_5.png,3,2,0.05000000074505806,1.0,950.23779296875,['v'],1.8055908679962158,a,241.0
lattice,243,p,img/target_10.png,3,3,0.05000000074505806,1.0,952.1387329101562,['p'],1.1449530124664307,a,242.0
lattice,244,o,img/target_9.png,3,4,0.05000000074505806,1.0,953.3723754882812,['o'],1.6471781730651855,a,243.0
lattice,245,v,img/target_5.png,3,2,0.05000000074505806,1.0,955.1077270507812,['v'],1.6006419658660889,a,244.0
lattice,246,o,img/target_9.png,3,4,0.05000000074505806,1.0,956.8050537109375,['o'],5.311413764953613,a,245.0
lattice,247,w,img/target_2.png,3,6,0.05000000074505806,1.0,962.2064208984375,['w'],3.4694900512695312,a,246.0
lattice,248,r,img/target_4.png,3,7,0.05000000074505806,1.0,965.7726440429688,['r'],2.8383100032806396,a,247.0
lattice,249,w,img/target_2.png,3,6,0.05000000074505806,1.0,968.707763671875,['w'],1.832165002822876,a,248.0
lattice,250,u,img/target_7.png,3,8,0.05000000074505806,1.0,970.640869140625,['u'],2.9538750648498535,a,249.0
lattice,251,w,img/target_2.png,3,6,0.05000000074505806,1.0,1031.138671875,['w'],4.150069236755371,a,250.0
lattice,252,o,img/target_9.png,3,4,0.05000000074505806,1.0,1035.38037109375,['o'],1.204284906387329,a,251.0
lattice,253,v,img/target_5.png,3,2,0.05000000074505806,1.0,1036.6800537109375,['v'],2.3299758434295654,a,252.0
lattice,254,i,img/target_8.png,3,0,0.05000000074505806,0.0,1039.0972900390625,['i'],4.440221786499023,a,253.0
lattice,255,e,img/target_3.png,3,9,0.05000000074505806,1.0,1043.6143798828125,['e'],2.7549569606781006,a,254.0
lattice,256,i,img/target_8.png,3,0,0.05000000074505806,1.0,1046.4649658203125,['i'],1.1512579917907715,a,255.0
lattice,257,q,img/target_1.png,3,1,0.05000000074505806,1.0,1047.7149658203125,['q'],1.7340521812438965,a,256.0
lattice,258,v,img/target_5.png,3,2,0.05000000074505806,1.0,1049.54736328125,['v'],3.012937068939209,a,257.0
lattice,259,q,img/target_1.png,3,1,0.05000000074505806,1.0,1052.6478271484375,['q'],1.209717035293579,a,258.0
lattice,260,v,img/target_5.png,3,2,0.05000000074505806,1.0,1053.948974609375,['v'],0.9471478462219238,a,259.0
lattice,261,q,img/target_1.png,3,1,0.05000000074505806,1.0,1054.9822998046875,['q'],1.4257419109344482,a,260.0
lattice,262,e,img/target_3.png,3,9,0.05000000074505806,0.0,1056.4990234375,['e'],6.686229228973389,a,261.0
lattice,263,u,img/target_7.png,3,8,0.05000000074505806,1.0,1063.26611328125,['u'],2.4150538444519043,a,262.0
lattice,264,w,img/target_2.png,3,6,0.05000000074505806,1.0,1065.7823486328125,['w'],3.058452844619751,a,263.0
lattice,265,b,img/target_6.png,3,5,0.05000000074505806,1.0,1068.93359375,['b'],2.499253988265991,a,264.0
lattice,266,o,img/target_9.png,3,4,0.05000000074505806,1.0,1071.5345458984375,['o'],1.3299708366394043,a,265.0
lattice,267,v,img/target_5.png,3,2,0.05000000074505806,1.0,1072.9542236328125,['v'],1.7973110675811768,a,266.0
lattice,268,o,img/target_9.png,3,4,0.05000000074505806,1.0,1074.8505859375,['o'],1.205766201019287,a,267.0
lattice,269,w,img/target_2.png,3,6,0.05000000074505806,1.0,1076.150146484375,['w'],2.4582860469818115,a,268.0
lattice,270,b,img/target_6.png,3,5,0.05000000074505806,1.0,1078.7012939453125,['b'],2.20320200920105,a,269.0
lattice,271,w,img/target_2.png,3,6,0.05000000074505806,1.0,1081.00146484375,['w'],2.213921070098877,a,270.0
lattice,272,o,img/target_9.png,3,4,0.05000000074505806,1.0,1083.301513671875,['o'],1.7696919441223145,a,271.0
lattice,273,w,img/target_2.png,3,6,0.05000000074505806,1.0,1085.1678466796875,['w'],1.45644211769104,a,272.0
lattice,274,b,img/target_6.png,3,5,0.05000000074505806,1.0,1086.7200927734375,['b'],1.8718819618225098,a,273.0
lattice,275,p,img/target_10.png,3,3,0.05000000074505806,1.0,1088.685791015625,['p'],2.8014378547668457,a,274.0
lattice,276,q,img/target_1.png,3,1,0.05000000074505806,1.0,1091.5860595703125,['q'],2.8129160404205322,a,275.0
lattice,277,v,img/target_5.png,3,2,0.05000000074505806,1.0,1094.485595703125,['v'],1.6332662105560303,a,276.0
lattice,278,i,img/target_8.png,3,0,0.05000000074505806,1.0,1096.2197265625,['i'],3.307948112487793,a,277.0
lattice,279,v,img/target_5.png,3,2,0.05000000074505806,1.0,1099.619140625,['v'],2.8765909671783447,a,278.0
lattice,280,q,img/target_1.png,3,1,0.05000000074505806,1.0,1102.5888671875,['q'],1.418982982635498,a,279.0
lattice,281,e,img/target_3.png,3,9,0.05000000074505806,1.0,1104.103271484375,['e'],7.471341133117676,a,280.0
lattice,282,i,img/target_8.png,3,0,0.05000000074505806,1.0,1111.6712646484375,['i'],1.7909269332885742,a,281.0
lattice,283,q,img/target_1.png,3,1,0.05000000074505806,1.0,1113.553955078125,['q'],2.429353952407837,a,282.0
lattice,284,p,img/target_10.png,3,3,0.05000000074505806,1.0,1116.0714111328125,['p'],4.079580307006836,a,283.0
lattice,285,q,img/target_1.png,3,1,0.05000000074505806,1.0,1120.2388916015625,['q'],1.719304084777832,a,284.0
lattice,286,v,img/target_5.png,3,2,0.05000000074505806,1.0,1122.0560302734375,['v'],3.3980438709259033,a,285.0
lattice,287,p,img/target_10.png,3,3,0.05000000074505806,1.0,1125.538330078125,['p'],3.1004490852355957,a,286.0
lattice,288,q,img/target_1.png,3,1,0.05000000074505806,1.0,1128.7398681640625,['q'],0.9391570091247559,a,287.0
lattice,289,p,img/target_10.png,3,3,0.05000000074505806,1.0,1129.7728271484375,['p'],1.305293083190918,a,288.0
lattice,290,o,img/target_9.png,3,4,0.05000000074505806,1.0,1131.172119140625,['o'],1.5775079727172852,a,289.0
lattice,291,b,img/target_6.png,3,5,0.05000000074505806,1.0,1132.8402099609375,['b'],1.4136369228363037,a,290.0
lattice,292,r,img/target_4.png,3,7,0.05000000074505806,0.0,1134.3394775390625,['r'],5.297849655151367,a,291.0
lattice,293,u,img/target_7.png,3,8,0.05000000074505806,1.0,1139.706787109375,['u'],4.626479148864746,a,292.0
lattice,294,e,img/target_3.png,3,9,0.05000000074505806,0.0,1144.4241943359375,['e'],25.50847625732422,a,293.0
lattice,295,i,img/target_8.png,3,0,0.05000000074505806,1.0,1170.010009765625,['i'],4.002962112426758,a,294.0
lattice,296,e,img/target_3.png,3,9,0.05000000074505806,1.0,1174.1109619140625,['e'],1.7742910385131836,a,295.0
lattice,297,r,img/target_4.png,3,7,0.05000000074505806,1.0,1175.980224609375,['r'],1.0400450229644775,a,296.0
lattice,298,w,img/target_2.png,3,6,0.05000000074505806,1.0,1177.1129150390625,['w'],1.236618995666504,a,297.0
lattice,299,r,img/target_4.png,3,7,0.05000000074505806,1.0,1178.4473876953125,['r'],1.852794885635376,a,298.0
lattice,300,b,img/target_6.png,3,5,0.05000000074505806,1.0,1180.393798828125,['b'],18.00987434387207,a,299.0
lattice,301,w,img/target_2.png,3,6,0.05000000074505806,1.0,1198.49658203125,['w'],2.1082210540771484,a,300.0
lattice,302,o,img/target_9.png,3,4,0.05000000074505806,1.0,1200.6961669921875,['o'],1.5635998249053955,a,301.0
lattice,303,v,img/target_5.png,3,2,0.05000000074505806,1.0,1202.3465576171875,['v'],1.5850951671600342,a,302.0
lattice,304,o,img/target_9.png,3,4,0.05000000074505806,1.0,1204.0302734375,['o'],1.1974389553070068,a,303.0
lattice,305,v,img/target_5.png,3,2,0.05000000074505806,1.0,1205.31396484375,['v'],1.105220079421997,a,304.0
lattice,306,p,img/target_10.png,3,3,0.05000000074505806,1.0,1206.513916015625,['p'],1.5464451313018799,a,305.0
lattice,307,b,img/target_6.png,3,5,0.05000000074505806,1.0,1208.1463623046875,['b'],1.9059009552001953,a,306.0
lattice,308,o,img/target_9.png,3,4,0.05000000074505806,1.0,1210.1475830078125,['o'],1.7043769359588623,a,307.0
lattice,309,p,img/target_10.png,3,3,0.05000000074505806,1.0,1211.9473876953125,['p'],0.848517894744873,a,308.0
lattice,310,b,img/target_6.png,3,5,0.05000000074505806,1.0,1212.8802490234375,['b'],1.1316909790039062,a,309.0
lattice,311,p,img/target_10.png,3,3,0.05000000074505806,1.0,1214.1148681640625,['p'],0.7122159004211426,a,310.0
lattice,312,o,img/target_9.png,3,4,0.05000000074505806,1.0,1214.9150390625,['o'],1.1209840774536133,a,311.0
lattice,313,v,img/target_5.png,3,2,0.05000000074505806,1.0,1216.1312255859375,['v'],1.2885560989379883,a,312.0
lattice,314,p,img/target_10.png,3,3,0.05000000074505806,1.0,1217.514892578125,['p'],1.6331470012664795,a,313.0
lattice,315,o,img/target_9.png,3,4,0.05000000074505806,1.0,1219.2479248046875,['o'],0.5243210792541504,a,314.0
lattice,316,v,img/target_5.png,3,2,0.05000000074505806,1.0,1219.8675537109375,['v'],0.8476569652557373,a,315.0
lattice,317,q,img/target_1.png,3,1,0.05000000074505806,1.0,1220.8153076171875,['q'],1.2683649063110352,a,316.0
lattice,318,p,img/target_10.png,3,3,0.05000000074505806,1.0,1222.1810302734375,['p'],1.0469470024108887,a,317.0
lattice,319,q,img/target_1.png,3,1,0.05000000074505806,1.0,1223.3165283203125,['q'],1.0061309337615967,a,318.0
lattice,320,v,img/target_5.png,3,2,0.05000000074505806,1.0,1224.4156494140625,['v'],1.2751240730285645,a,319.0
lattice,321,o,img/target_9.png,3,4,0.05000000074505806,0.0,1225.78125,['o'],5.5093770027160645,a,320.0
lattice,322,b,img/target_6.png,3,5,0.05000000074505806,1.0,1231.3658447265625,['b'],4.26854133605957,a,321.0
lattice,323,r,img/target_4.png,3,7,0.05000000074505806,1.0,1235.735595703125,['r'],2.0595760345458984,a,322.0
lattice,324,e,img/target_3.png,3,9,0.05000000074505806,1.0,1237.8836669921875,['e'],1.0156669616699219,a,323.0
lattice,325,i,img/target_8.png,3,0,0.05000000074505806,0.0,1239.0018310546875,['i'],6.737301826477051,a,324.0
lattice,326,e,img/target_3.png,3,9,0.05000000074505806,0.0,1245.81689453125,['e'],3.6091439723968506,a,325.0
lattice,327,i,img/target_8.png,3,0,0.05000000074505806,1.0,1249.5018310546875,['i'],4.651998996734619,a,326.0
lattice,328,q,img/target_1.png,3,1,0.05000000074505806,1.0,1254.251953125,['q'],1.3351621627807617,a,327.0
lattice,329,v,img/target_5.png,3,2,0.05000000074505806,1.0,1255.6851806640625,['v'],1.4208910465240479,a,328.0
lattice,330,p,img/target_10.png,3,3,0.05000000074505806,1.0,1257.202392578125,['p'],1.5753920078277588,a,329.0
lattice,331,q,img/target_1.png,3,1,0.05000000074505806,1.0,1258.8707275390625,['q'],1.3717451095581055,a,330.0
lattice,332,p,img/target_10.png,3,3,0.05000000074505806,1.0,1260.3359375,['p'],0.7785961627960205,a,331.0
lattice,333,o,img/target_9.png,3,4,0.05000000074505806,1.0,1261.202880859375,['o'],1.5355198383331299,a,332.0
lattice,334,w,img/target_2.png,3,6,0.05000000074505806,1.0,1262.836181640625,['w'],5.741482734680176,a,333.0
lattice,335,b,img/target_6.png,3,5,0.05000000074505806,0.0,1268.669189453125,['b'],12.33266830444336,a,334.0
lattice,336,p,img/target_10.png,3,3,0.05000000074505806,1.0,1281.0875244140625,['p'],1.6093931198120117,a,335.0
lattice,337,q,img/target_1.png,3,1,0.05000000074505806,1.0,1282.7880859375,['q'],1.3328039646148682,a,336.0
lattice,338,i,img/target_8.png,3,0,0.05000000074505806,1.0,1284.2218017578125,['i'],6.475685119628906,a,337.0
lattice,339,q,img/target_1.png,3,1,0.05000000074505806,1.0,1290.7882080078125,['q'],1.5646049976348877,a,338.0
lattice,340,v,img/target_5.png,3,2,0.05000000074505806,1.0,1292.4383544921875,['v'],2.9540598392486572,a,339.0
lattice,341,p,img/target_10.png,3,3,0.05000000074505806,1.0,1295.4888916015625,['p'],1.7994508743286133,a,340.0
lattice,342,b,img/target_6.png,3,5,0.05000000074505806,1.0,1297.3895263671875,['b'],9.531003952026367,a,341.0
lattice,343,r,img/target_4.png,3,7,0.05000000074505806,1.0,1307.0072021484375,['r'],1.3939900398254395,a,342.0
lattice,344,u,img/target_7.png,3,8,0.05000000074505806,1.0,1308.490478515625,['u'],1.3184618949890137,a,343.0
lattice,345,i,img/target_8.png,3,0,0.05000000074505806,1.0,1309.9075927734375,['i'],0.9650180339813232,a,344.0
lattice,346,v,img/target_5.png,3,2,0.05000000074505806,1.0,1310.9730224609375,['v'],1.19569993019104,a,345.0
lattice,347,q,img/target_1.png,3,1,0.05000000074505806,1.0,1312.2578125,['q'],0.9034938812255859,a,346.0
lattice,348,v,img/target_5.png,3,2,0.05000000074505806,1.0,1313.2578125,['v'],1.5673601627349854,a,347.0
lattice,349,p,img/target_10.png,3,3,0.05000000074505806,1.0,1314.9237060546875,['p'],1.01202392578125,a,348.0
lattice,350,v,img/target_5.png,3,2,0.05000000074505806,1.0,1316.0245361328125,['v'],2.13651704788208,a,349.0
lattice,351,q,img/target_1.png,3,1,0.05000000074505806,1.0,1318.2576904296875,['q'],1.0779180526733398,a,350.0
lattice,352,e,img/target_3.png,3,9,0.05000000074505806,0.0,1319.4285888671875,['e'],6.10762882232666,a,351.0
lattice,353,q,img/target_1.png,3,1,0.05000000074505806,1.0,1325.6080322265625,['q'],3.2407021522521973,a,352.0
lattice,354,i,img/target_8.png,3,0,0.05000000074505806,1.0,1328.943603515625,['i'],2.6721248626708984,a,353.0
lattice,355,v,img/target_5.png,3,2,0.05000000074505806,1.0,1331.7083740234375,['v'],1.7559590339660645,a,354.0
lattice,356,q,img/target_1.png,3,1,0.05000000074505806,1.0,1333.559814453125,['q'],1.439310073852539,a,355.0
lattice,357,e,img/target_3.png,3,9,0.05000000074505806,1.0,1335.0931396484375,['e'],5.739083290100098,a,356.0
lattice,358,q,img/target_1.png,3,1,0.05000000074505806,1.0,1340.92724609375,['q'],1.119615077972412,a,357.0
lattice,359,v,img/target_5.png,3,2,0.05000000074505806,1.0,1342.144287109375,['v'],2.447550058364868,a,358.0
lattice,360,q,img/target_1.png,3,1,0.05000000074505806,1.0,1344.693115234375,['q'],1.442742109298706,a,359.0
lattice,361,p,img/target_10.png,3,3,0.05000000074505806,1.0,1346.2276611328125,['p'],1.0361990928649902,a,360.0
lattice,362,q,img/target_1.png,3,1,0.05000000074505806,1.0,1347.361083984375,['q'],1.2629179954528809,a,361.0
lattice,363,i,img/target_8.png,3,0,0.05000000074505806,1.0,1348.710205078125,['i'],2.7537569999694824,a,362.0
lattice,364,v,img/target_5.png,3,2,0.05000000074505806,1.0,1351.562255859375,['v'],1.0043690204620361,a,363.0
lattice,365,p,img/target_10.png,3,3,0.05000000074505806,1.0,1352.6617431640625,['p'],2.6657769680023193,a,364.0
lattice,366,b,img/target_6.png,3,5,0.05000000074505806,1.0,1355.4281005859375,['b'],1.6670200824737549,a,365.0
lattice,367,p,img/target_10.png,3,3,0.05000000074505806,1.0,1357.1953125,['p'],0.8920080661773682,a,366.0
lattice,368,q,img/target_1.png,3,1,0.05000000074505806,1.0,1358.1788330078125,['q'],2.708508014678955,a,367.0
lattice,369,v,img/target_5.png,3,2,0.05000000074505806,1.0,1360.9781494140625,['v'],2.0440800189971924,a,368.0
lattice,370,p,img/target_10.png,3,3,0.05000000074505806,1.0,1363.113037109375,['p'],1.4452579021453857,a,369.0
lattice,371,v,img/target_5.png,3,2,0.05000000074505806,1.0,1364.645263671875,['v'],0.9943270683288574,a,370.0
lattice,372,p,img/target_10.png,3,3,0.05000000074505806,1.0,1365.7283935546875,['p'],0.751101016998291,a,371.0
lattice,373,v,img/target_5.png,3,2,0.05000000074505806,1.0,1366.5797119140625,['v'],0.731065034866333,a,372.0
lattice,374,o,img/target_9.png,3,4,0.05000000074505806,0.0,1367.397216796875,['o'],3.1139068603515625,a,373.0
lattice,375,v,img/target_5.png,3,2,0.05000000074505806,1.0,1370.595703125,['v'],1.618502140045166,a,374.0
lattice,376,p,img/target_10.png,3,3,0.05000000074505806,1.0,1372.3133544921875,['p'],1.9485671520233154,a,375.0
lattice,377,v,img/target_5.png,3,2,0.05000000074505806,1.0,1374.345947265625,['v'],1.0679280757904053,a,376.0
lattice,378,o,img/target_9.png,3,4,0.05000000074505806,1.0,1375.5142822265625,['o'],2.132556915283203,a,377.0
lattice,379,w,img/target_2.png,3,6,0.05000000074505806,1.0,1377.7471923828125,['w'],2.202491044998169,a,378.0
lattice,380,u,img/target_7.png,3,8,0.05000000074505806,1.0,1380.0477294921875,['u'],2.2699220180511475,a,379.0
lattice,381,r,img/target_4.png,3,7,0.05000000074505806,1.0,1382.413818359375,['r'],1.7597529888153076,a,380.0
lattice,382,e,img/target_3.png,3,9,0.05000000074505806,1.0,1384.2666015625,['e'],1.387519121170044,a,381.0
lattice,383,q,img/target_1.png,3,1,0.05000000074505806,1.0,1385.748046875,['q'],1.5614941120147705,a,382.0
lattice,384,v,img/target_5.png,3,2,0.05000000074505806,1.0,1387.3984375,['v'],2.008064031600952,a,383.0
lattice,385,q,img/target_1.png,3,1,0.05000000074505806,1.0,1389.4981689453125,['q'],1.4684250354766846,a,384.0
lattice,386,p,img/target_10.png,3,3,0.05000000074505806,1.0,1391.065185546875,['p'],1.2524869441986084,a,385.0
lattice,387,o,img/target_9.png,3,4,0.05000000074505806,1.0,1392.4146728515625,['o'],1.655620813369751,a,386.0
lattice,388,w,img/target_2.png,3,6,0.05000000074505806,1.0,1394.1656494140625,['w'],1.975728988647461,a,387.0
lattice,389,r,img/target_4.png,3,7,0.05000000074505806,1.0,1396.2325439453125,['r'],4.508628845214844,a,388.0
lattice,390,b,img/target_6.png,3,5,0.05000000074505806,1.0,1400.8333740234375,['b'],2.1323750019073486,a,389.0
lattice,391,w,img/target_2.png,3,6,0.05000000074505806,1.0,1403.06591796875,['w'],3.2920420169830322,a,390.0
lattice,392,b,img/target_6.png,3,5,0.05000000074505806,0.0,1406.44921875,['b'],3.140791177749634,a,391.0
lattice,393,r,img/target_4.png,3,7,0.05000000074505806,1.0,1409.6663818359375,['r'],1.2839241027832031,a,392.0
lattice,394,e,img/target_3.png,3,9,0.05000000074505806,1.0,1411.05078125,['e'],0.7382421493530273,a,393.0
lattice,395,q,img/target_1.png,3,1,0.05000000074505806,1.0,1411.884033203125,['q'],1.072667121887207,a,394.0
lattice,396,i,img/target_8.png,3,0,0.05000000074505806,1.0,1413.051025390625,['i'],4.8505048751831055,a,395.0
lattice,397,v,img/target_5.png,3,2,0.05000000074505806,1.0,1418.0008544921875,['v'],1.9715378284454346,a,396.0
lattice,398,o,img/target_9.png,3,4,0.05000000074505806,1.0,1420.0684814453125,['o'],1.247920036315918,a,397.0
lattice,399,v,img/target_5.png,3,2,0.05000000074505806,1.0,1421.4033203125,['v'],3.2410600185394287,a,398.0
lattice,400,i,img/target_8.png,3,0,0.05000000074505806,1.0,1424.7347412109375,['i'],1.6385650634765625,a,399.0
lattice,401,v,img/target_5.png,3,2,0.05000000074505806,1.0,1426.468994140625,['v'],2.312296152114868,a,400.0
lattice,402,q,img/target_1.png,3,1,0.05000000074505806,1.0,1428.8687744140625,['q'],1.143692970275879,a,401.0
lattice,403,i,img/target_8.png,3,0,0.05000000074505806,1.0,1430.1024169921875,['i'],2.589768171310425,a,402.0
lattice,404,e,img/target_3.png,3,9,0.05000000074505806,1.0,1432.7860107421875,['e'],3.2262401580810547,a,403.0
lattice,405,u,img/target_7.png,3,8,0.05000000074505806,1.0,1436.105224609375,['u'],1.948045015335083,a,404.0
lattice,406,w,img/target_2.png,3,6,0.05000000074505806,1.0,1438.1534423828125,['w'],2.7796390056610107,a,405.0
lattice,407,r,img/target_4.png,3,7,0.05000000074505806,1.0,1441.0194091796875,['r'],5.1923699378967285,a,406.0
lattice,408,b,img/target_6.png,3,5,0.05000000074505806,1.0,1446.302978515625,['b'],1.6379129886627197,a,407.0
lattice,409,p,img/target_10.png,3,3,0.05000000074505806,1.0,1448.0374755859375,['p'],5.158029079437256,a,408.0
lattice,410,q,img/target_1.png,3,1,0.05000000074505806,1.0,1453.2882080078125,['q'],1.4041669368743896,a,409.0
lattice,411,v,img/target_5.png,3,2,0.05000000074505806,1.0,1454.7879638671875,['v'],3.1275148391723633,a,410.0
lattice,412,q,img/target_1.png,3,1,0.05000000074505806,1.0,1458.0045166015625,['q'],1.6955370903015137,a,411.0
lattice,413,i,img/target_8.png,3,0,0.05000000074505806,1.0,1459.7884521484375,['i'],1.4478378295898438,a,412.0
lattice,414,q,img/target_1.png,3,1,0.05000000074505806,1.0,1461.3387451171875,['q'],3.865273952484131,a,413.0
lattice,415,e,img/target_3.png,3,9,0.05000000074505806,1.0,1465.3060302734375,['e'],1.9050610065460205,a,414.0
lattice,416,q,img/target_1.png,3,1,0.05000000074505806,1.0,1467.30615234375,['q'],4.521915912628174,a,415.0
lattice,417,e,img/target_3.png,3,9,0.05000000074505806,1.0,1471.922607421875,['e'],4.841266632080078,a,416.0
lattice,418,u,img/target_7.png,3,8,0.05000000074505806,1.0,1476.8570556640625,['u'],8.690424919128418,a,417.0
lattice,419,r,img/target_4.png,3,7,0.05000000074505806,1.0,1485.6412353515625,['r'],7.6022629737854,a,418.0
lattice,420,e,img/target_3.png,3,9,0.05000000074505806,1.0,1493.3421630859375,['e'],1.8767890930175781,a,419.0
lattice,421,r,img/target_4.png,3,7,0.05000000074505806,1.0,1495.308837890625,['r'],4.09422492980957,a,420.0
lattice,422,b,img/target_6.png,3,5,0.05000000074505806,1.0,1499.4923095703125,['b'],6.149550437927246,a,421.0
lattice,423,o,img/target_9.png,3,4,0.05000000074505806,1.0,1505.7257080078125,['o'],3.740128993988037,a,422.0
lattice,424,v,img/target_5.png,3,2,0.05000000074505806,1.0,1509.559326171875,['v'],1.8434200286865234,a,423.0
lattice,425,o,img/target_9.png,3,4,0.05000000074505806,1.0,1511.492919921875,['o'],0.9657599925994873,a,424.0
lattice,426,w,img/target_2.png,3,6,0.05000000074505806,1.0,1512.5595703125,['w'],1.8424439430236816,a,425.0
lattice,427,b,img/target_6.png,3,5,0.05000000074505806,1.0,1514.4942626953125,['b'],2.7085649967193604,a,426.0
lattice,428,o,img/target_9.png,3,4,0.05000000074505806,1.0,1517.29345703125,['o'],2.1809260845184326,a,427.0
lattice,429,w,img/target_2.png,3,6,0.05000000074505806,1.0,1519.5770263671875,['w'],1.2402420043945312,a,428.0
lattice,430,r,img/target_4.png,3,7,0.05000000074505806,1.0,1520.911376953125,['r'],2.3789620399475098,a,429.0
lattice,431,b,img/target_6.png,3,5,0.05000000074505806,1.0,1523.3773193359375,['b'],0.9690749645233154,a,430.0
lattice,432,p,img/target_10.png,3,3,0.05000000074505806,0.0,1524.4451904296875,['p'],20.17959213256836,a,431.0
lattice,433,o,img/target_9.png,3,4,0.05000000074505806,1.0,1544.69775390625,['o'],3.479825973510742,a,432.0
lattice,434,v,img/target_5.png,3,2,0.05000000074505806,1.0,1548.2630615234375,['v'],2.3467049598693848,a,433.0
lattice,435,o,img/target_9.png,3,4,0.05000000074505806,1.0,1550.69677734375,['o'],4.071487903594971,a,434.0
lattice,436,p,img/target_10.png,3,3,0.05000000074505806,1.0,1554.864013671875,['p'],5.001481056213379,a,435.0
lattice,437,o,img/target_9.png,3,4,0.05000000074505806,1.0,1559.965576171875,['o'],1.3716061115264893,a,436.0
lattice,438,b,img/target_6.png,3,5,0.05000000074505806,1.0,1561.431884765625,['b'],2.1048059463500977,a,437.0
lattice,439,w,img/target_2.png,3,6,0.05000000074505806,1.0,1563.63134765625,['w'],1.5765509605407715,a,438.0
lattice,440,u,img/target_7.png,3,8,0.05000000074505806,1.0,1565.2991943359375,['u'],1.276540994644165,a,439.0
lattice,441,w,img/target_2.png,3,6,0.05000000074505806,1.0,1566.665771484375,['w'],1.5031580924987793,a,440.0
lattice,442,r,img/target_4.png,3,7,0.05000000074505806,0.0,1568.26611328125,['r'],4.3665900230407715,a,441.0
lattice,443,e,img/target_3.png,3,9,0.05000000074505806,1.0,1572.7158203125,['e'],3.435715913772583,a,442.0
lattice,444,u,img/target_7.png,3,8,0.05000000074505806,1.0,1576.249267578125,['u'],4.638128280639648,a,443.0
lattice,445,r,img/target_4.png,3,7,0.05000000074505806,1.0,1580.983154296875,['r'],1.5372931957244873,a,444.0
lattice,446,u,img/target_7.png,3,8,0.05000000074505806,1.0,1582.6175537109375,['u'],0.9109768867492676,a,445.0
lattice,447,i,img/target_8.png,3,0,0.05000000074505806,1.0,1583.6168212890625,['i'],1.9195518493652344,a,446.0
lattice,448,q,img/target_1.png,3,1,0.05000000074505806,1.0,1585.6343994140625,['q'],1.357729196548462,a,447.0
lattice,449,e,img/target_3.png,3,9,0.05000000074505806,0.0,1587.083740234375,['e'],4.923364639282227,a,448.0
lattice,450,r,img/target_4.png,3,7,0.05000000074505806,0.0,1592.084228515625,['r'],5.8918046951293945,a,449.0
lattice,451,e,img/target_3.png,3,9,0.05000000074505806,1.0,1598.0528564453125,['e'],1.8908820152282715,a,450.0
lattice,452,i,img/target_8.png,3,0,0.05000000074505806,1.0,1600.0360107421875,['i'],4.466635704040527,a,451.0
lattice,453,e,img/target_3.png,3,9,0.05000000074505806,1.0,1604.60302734375,['e'],2.675595998764038,a,452.0
lattice,454,q,img/target_1.png,3,1,0.05000000074505806,1.0,1607.3717041015625,['q'],1.4042789936065674,a,453.0
lattice,455,v,img/target_5.png,3,2,0.05000000074505806,1.0,1608.868896484375,['v'],2.898793935775757,a,454.0
lattice,456,o,img/target_9.png,3,4,0.05000000074505806,0.0,1611.869384765625,['o'],4.674180030822754,a,455.0
lattice,457,v,img/target_5.png,3,2,0.05000000074505806,1.0,1616.6197509765625,['v'],3.0508129596710205,a,456.0
lattice,458,i,img/target_8.png,3,0,0.05000000074505806,1.0,1619.770263671875,['i'],2.9960200786590576,a,457.0
lattice,459,u,img/target_7.png,3,8,0.05000000074505806,1.0,1622.8536376953125,['u'],0.8888759613037109,a,458.0
lattice,460,w,img/target_2.png,3,6,0.05000000074505806,1.0,1623.837158203125,['w'],1.5698919296264648,a,459.0
lattice,461,r,img/target_4.png,3,7,0.05000000074505806,1.0,1625.505126953125,['r'],3.077934980392456,a,460.0
lattice,462,e,img/target_3.png,3,9,0.05000000074505806,1.0,1628.6722412109375,['e'],1.4149219989776611,a,461.0
lattice,463,u,img/target_7.png,3,8,0.05000000074505806,1.0,1630.1878662109375,['u'],1.9459969997406006,a,462.0
lattice,464,e,img/target_3.png,3,9,0.05000000074505806,0.0,1632.2249755859375,['e'],4.1889238357543945,a,463.0
lattice,465,q,img/target_1.png,3,1,0.05000000074505806,1.0,1636.4886474609375,['q'],1.4128589630126953,a,464.0
lattice,466,i,img/target_8.png,3,0,0.05000000074505806,1.0,1637.989501953125,['i'],6.024249076843262,a,465.0
lattice,467,v,img/target_5.png,3,2,0.05000000074505806,1.0,1644.107421875,['v'],1.8179080486297607,a,466.0
lattice,468,p,img/target_10.png,3,3,0.05000000074505806,1.0,1646.0267333984375,['p'],2.387784957885742,a,467.0
lattice,469,b,img/target_6.png,3,5,0.05000000074505806,1.0,1648.50634765625,['b'],2.7869820594787598,a,468.0
lattice,470,o,img/target_9.png,3,4,0.05000000074505806,1.0,1651.3897705078125,['o'],3.4004740715026855,a,469.0
lattice,471,v,img/target_5.png,3,2,0.05000000074505806,1.0,1654.890380859375,['v'],2.0677058696746826,a,470.0
lattice,472,q,img/target_1.png,3,1,0.05000000074505806,1.0,1657.064697265625,['q'],1.5643727779388428,a,471.0
lattice,473,v,img/target_5.png,3,2,0.05000000074505806,1.0,1658.7265625,['v'],1.5113580226898193,a,472.0
lattice,474,p,img/target_10.png,3,3,0.05000000074505806,1.0,1660.3243408203125,['p'],2.1618239879608154,a,473.0
lattice,475,b,img/target_6.png,3,5,0.05000000074505806,1.0,1662.5750732421875,['b'],2.4535980224609375,a,474.0
lattice,476,p,img/target_10.png,3,3,0.05000000074505806,1.0,1665.1258544921875,['p'],1.6562271118164062,a,475.0
lattice,477,o,img/target_9.png,3,4,0.05000000074505806,1.0,1666.875732421875,['o'],1.3298659324645996,a,476.0
lattice,478,b,img/target_6.png,3,5,0.05000000074505806,1.0,1668.3082275390625,['b'],1.4172799587249756,a,477.0
lattice,479,r,img/target_4.png,3,7,0.05000000074505806,1.0,1669.8275146484375,['r'],2.6503310203552246,a,478.0
lattice,480,b,img/target_6.png,3,5,0.05000000074505806,1.0,1672.5760498046875,['b'],1.6523768901824951,a,479.0
lattice,481,r,img/target_4.png,3,7,0.05000000074505806,1.0,1674.326416015625,['r'],1.2620270252227783,a,480.0
lattice,482,u,img/target_7.png,3,8,0.05000000074505806,1.0,1675.6766357421875,['u'],1.1520650386810303,a,481.0
lattice,483,r,img/target_4.png,3,7,0.05000000074505806,0.0,1676.925537109375,['r'],3.183804988861084,a,482.0
lattice,484,w,img/target_2.png,3,6,0.05000000074505806,1.0,1680.193359375,['w'],3.3241209983825684,a,483.0
lattice,485,b,img/target_6.png,3,5,0.05000000074505806,1.0,1683.61083984375,['b'],2.2182910442352295,a,484.0
lattice,486,w,img/target_2.png,3,6,0.05000000074505806,1.0,1685.9266357421875,['w'],2.9174489974975586,a,485.0
lattice,487,o,img/target_9.png,3,4,0.05000000074505806,1.0,1688.9447021484375,['o'],1.5313060283660889,a,486.0
lattice,488,b,img/target_6.png,3,5,0.05000000074505806,1.0,1690.562255859375,['b'],1.1945319175720215,a,487.0
lattice,489,r,img/target_4.png,3,7,0.05000000074505806,0.0,1691.84423828125,['r'],3.912451982498169,a,488.0
lattice,490,u,img/target_7.png,3,8,0.05000000074505806,0.0,1695.828857421875,['u'],10.910529136657715,a,489.0
lattice,491,i,img/target_8.png,3,0,0.05000000074505806,1.0,1706.8131103515625,['i'],3.39136004447937,a,490.0
lattice,492,v,img/target_5.png,3,2,0.05000000074505806,1.0,1710.296875,['v'],2.3557491302490234,a,491.0
lattice,493,q,img/target_1.png,3,1,0.05000000074505806,1.0,1712.75,['q'],3.741056203842163,a,492.0
lattice,494,e,img/target_3.png,3,9,0.05000000074505806,1.0,1716.582275390625,['e'],2.349797010421753,a,493.0
lattice,495,r,img/target_4.png,3,7,0.05000000074505806,1.0,1719.02978515625,['r'],4.214107990264893,a,494.0
lattice,496,e,img/target_3.png,3,9,0.05000000074505806,1.0,1723.330322265625,['e'],3.1456048488616943,a,495.0
lattice,497,r,img/target_4.png,3,7,0.05000000074505806,1.0,1726.564697265625,['r'],1.2790191173553467,a,496.0
lattice,498,e,img/target_3.png,3,9,0.05000000074505806,1.0,1727.9307861328125,['e'],0.9288909435272217,a,497.0
lattice,499,r,img/target_4.png,3,7,0.05000000074505806,1.0,1728.947509765625,['r'],0.7752249240875244,a,498.0
lattice,500,w,img/target_2.png,3,6,0.05000000074505806,1.0,1729.8154296875,['w'],1.308457851409912,a,499.0
lattice,501,u,img/target_7.png,3,8,,,,'--',,'--',500.0
lattice,502,r,img/target_4.png,3,7,,,,'--',,'--',
lattice,503,b,img/target_6.png,3,5,,,,'--',,'--',
lattice,504,p,img/target_10.png,3,3,,,,'--',,'--',
lattice,505,q,img/target_1.png,3,1,,,,'--',,'--',
lattice,506,i,img/target_8.png,3,0,,,,'--',,'--',
lattice,507,v,img/target_5.png,3,2,,,,'--',,'--',
lattice,508,q,img/target_1.png,3,1,,,,'--',,'--',
lattice,509,p,img/target_10.png,3,3,,,,'--',,'--',
lattice,510,b,img/target_6.png,3,5,,,,'--',,'--',
lattice,511,o,img/target_9.png,3,4,,,,'--',,'--',
lattice,512,p,img/target_10.png,3,3,,,,'--',,'--',
lattice,513,v,img/target_5.png,3,2,,,,'--',,'--',
lattice,514,p,img/target_10.png,3,3,,,,'--',,'--',
lattice,515,q,img/target_1.png,3,1,,,,'--',,'--',
lattice,516,v,img/target_5.png,3,2,,,,'--',,'--',
lattice,517,i,img/target_8.png,3,0,,,,'--',,'--',
lattice,518,u,img/target_7.png,3,8,,,,'--',,'--',
lattice,519,w,img/target_2.png,3,6,,,,'--',,'--',
lattice,520,b,img/target_6.png,3,5,,,,'--',,'--',
lattice,521,r,img/target_4.png,3,7,,,,'--',,'--',
lattice,522,w,img/target_2.png,3,6,,,,'--',,'--',
lattice,523,b,img/target_6.png,3,5,,,,'--',,'--',
lattice,524,r,img/target_4.png,3,7,,,,'--',,'--',
lattice,525,u,img/target_7.png,3,8,,,,'--',,'--',
lattice,526,w,img/target_2.png,3,6,,,,'--',,'--',
lattice,527,b,img/target_6.png,3,5,,,,'--',,'--',
lattice,528,w,img/target_2.png,3,6,,,,'--',,'--',
lattice,529,r,img/target_4.png,3,7,,,,'--',,'--',
lattice,530,w,img/target_2.png,3,6,,,,'--',,'--',
lattice,531,o,img/target_9.png,3,4,,,,'--',,'--',
lattice,532,b,img/target_6.png,3,5,,,,'--',,'--',
lattice,533,w,img/target_2.png,3,6,,,,'--',,'--',
lattice,534,u,img/target_7.png,3,8,,,,'--',,'--',
lattice,535,w,img/target_2.png,3,6,,,,'--',,'--',
lattice,536,b,img/target_6.png,3,5,,,,'--',,'--',
lattice,537,p,img/target_10.png,3,3,,,,'--',,'--',
lattice,538,q,img/target_1.png,3,1,,,,'--',,'--',
lattice,539,i,img/target_8.png,3,0,,,,'--',,'--',
lattice,540,u,img/target_7.png,3,8,,,,'--',,'--',
lattice,541,i,img/target_8.png,3,0,,,,'--',,'--',
lattice,542,q,img/target_1.png,3,1,,,,'--',,'--',
lattice,543,i,img/target_8.png,3,0,,,,'--',,'--',
lattice,544,e,img/target_3.png,3,9,,,,'--',,'--',
lattice,545,r,img/target_4.png,3,7,,,,'--',,'--',
lattice,546,b,img/target_6.png,3,5,,,,'--',,'--',
lattice,547,w,img/target_2.png,3,6,,,,'--',,'--',
lattice,548,o,img/target_9.png,3,4,,,,'--',,'--',
lattice,549,v,img/target_5.png,3,2,,,,'--',,'--',
lattice,550,i,img/target_8.png,3,0,,,,'--',,'--',
lattice,551,v,img/target_5.png,3,2,,,,'--',,'--',
lattice,552,p,img/target_10.png,3,3,,,,'--',,'--',
lattice,553,q,img/target_1.png,3,1,,,,'--',,'--',
lattice,554,v,img/target_5.png,3,2,,,,'--',,'--',
lattice,555,p,img/target_10.png,3,3,,,,'--',,'--',
lattice,556,o,img/target_9.png,3,4,,,,'--',,'--',
lattice,557,p,img/target_10.png,3,3,,,,'--',,'--',
lattice,558,b,img/target_6.png,3,5,,,,'--',,'--',
lattice,559,o,img/target_9.png,3,4,,,,'--',,'--',
lattice,560,v,img/target_5.png,3,2,,,,'--',,'--',
lattice,561,p,img/target_10.png,3,3,,,,'--',,'--',
lattice,562,q,img/target_1.png,3,1,,,,'--',,'--',
lattice,563,e,img/target_3.png,3,9,,,,'--',,'--',
lattice,564,i,img/target_8.png,3,0,,,,'--',,'--',
lattice,565,v,img/target_5.png,3,2,,,,'--',,'--',
lattice,566,i,img/target_8.png,3,0,,,,'--',,'--',
lattice,567,q,img/target_1.png,3,1,,,,'--',,'--',
lattice,568,e,img/target_3.png,3,9,,,,'--',,'--',
lattice,569,q,img/target_1.png,3,1,,,,'--',,'--',
lattice,570,v,img/target_5.png,3,2,,,,'--',,'--',
lattice,571,i,img/target_8.png,3,0,,,,'--',,'--',
lattice,572,u,img/target_7.png,3,8,,,,'--',,'--',
lattice,573,w,img/target_2.png,3,6,,,,'--',,'--',
lattice,574,b,img/target_6.png,3,5,,,,'--',,'--',
lattice,575,w,img/target_2.png,3,6,,,,'--',,'--',
lattice,576,b,img/target_6.png,3,5,,,,'--',,'--',
lattice,577,p,img/target_10.png,3,3,,,,'--',,'--',
lattice,578,b,img/target_6.png,3,5,,,,'--',,'--',
lattice,579,r,img/target_4.png,3,7,,,,'--',,'--',
lattice,580,u,img/target_7.png,3,8,,,,'--',,'--',
lattice,581,e,img/target_3.png,3,9,,,,'--',,'--',
lattice,582,r,img/target_4.png,3,7,,,,'--',,'--',
lattice,583,w,img/target_2.png,3,6,,,,'--',,'--',
lattice,584,o,img/target_9.png,3,4,,,,'--',,'--',
lattice,585,w,img/target_2.png,3,6,,,,'--',,'--',
lattice,586,u,img/target_7.png,3,8,,,,'--',,'--',
lattice,587,w,img/target_2.png,3,6,,,,'--',,'--',
lattice,588,o,img/target_9.png,3,4,,,,'--',,'--',
lattice,589,v,img/target_5.png,3,2,,,,'--',,'--',
lattice,590,i,img/target_8.png,3,0,,,,'--',,'--',
lattice,591,q,img/target_1.png,3,1,,,,'--',,'--',
lattice,592,p,img/target_10.png,3,3,,,,'--',,'--',
lattice,593,q,img/target_1.png,3,1,,,,'--',,'--',
lattice,594,e,img/target_3.png,3,9,,,,'--',,'--',
lattice,595,q,img/target_1.png,3,1,,,,'--',,'--',
lattice,596,e,img/target_3.png,3,9,,,,'--',,'--',
lattice,597,q,img/target_1.png,3,1,,,,'--',,'--',
lattice,598,v,img/target_5.png,3,2,,,,'--',,'--',
lattice,599,q,img/target_1.png,3,1,,,,'--',,'--',
lattice,600,e,img/target_3.png,3,9,,,,'--',,'--',
lattice,601,u,img/target_7.png,3,8,,,,'--',,'--',
lattice,602,w,img/target_2.png,3,6,,,,'--',,'--',
lattice,603,o,img/target_9.png,3,4,,,,'--',,'--',
lattice,604,p,img/target_10.png,3,3,,,,'--',,'--',
lattice,605,v,img/target_5.png,3,2,,,,'--',,'--',
lattice,606,p,img/target_10.png,3,3,,,,'--',,'--',
lattice,607,o,img/target_9.png,3,4,,,,'--',,'--',
lattice,608,v,img/target_5.png,3,2,,,,'--',,'--',
lattice,609,i,img/target_8.png,3,0,,,,'--',,'--',
lattice,610,q,img/target_1.png,3,1,,,,'--',,'--',
lattice,611,i,img/target_8.png,3,0,,,,'--',,'--',
lattice,612,q,img/target_1.png,3,1,,,,'--',,'--',
lattice,613,p,img/target_10.png,3,3,,,,'--',,'--',
lattice,614,q,img/target_1.png,3,1,,,,'--',,'--',
lattice,615,e,img/target_3.png,3,9,,,,'--',,'--',
lattice,616,u,img/target_7.png,3,8,,,,'--',,'--',
lattice,617,i,img/target_8.png,3,0,,,,'--',,'--',
lattice,618,q,img/target_1.png,3,1,,,,'--',,'--',
lattice,619,p,img/target_10.png,3,3,,,,'--',,'--',
lattice,620,q,img/target_1.png,3,1,,,,'--',,'--',
lattice,621,i,img/target_8.png,3,0,,,,'--',,'--',
lattice,622,q,img/target_1.png,3,1,,,,'--',,'--',
lattice,623,p,img/target_10.png,3,3,,,,'--',,'--',
lattice,624,q,img/target_1.png,3,1,,,,'--',,'--',
lattice,625,i,img/target_8.png,3,0,,,,'--',,'--',
lattice,626,e,img/target_3.png,3,9,,,,'--',,'--',
lattice,627,q,img/target_1.png,3,1,,,,'--',,'--',
lattice,628,p,img/target_10.png,3,3,,,,'--',,'--',
lattice,629,q,img/target_1.png,3,1,,,,'--',,'--',
lattice,630,v,img/target_5.png,3,2,,,,'--',,'--',
lattice,631,o,img/target_9.png,3,4,,,,'--',,'--',
lattice,632,w,img/target_2.png,3,6,,,,'--',,'--',
lattice,633,o,img/target_9.png,3,4,,,,'--',,'--',
lattice,634,v,img/target_5.png,3,2,,,,'--',,'--',
lattice,635,q,img/target_1.png,3,1,,,,'--',,'--',
lattice,636,e,img/target_3.png,3,9,,,,'--',,'--',
lattice,637,r,img/target_4.png,3,7,,,,'--',,'--',
lattice,638,w,img/target_2.png,3,6,,,,'--',,'--',
lattice,639,u,img/target_7.png,3,8,,,,'--',,'--',
lattice,640,i,img/target_8.png,3,0,,,,'--',,'--',
lattice,641,e,img/target_3.png,3,9,,,,'--',,'--',
lattice,642,i,img/target_8.png,3,0,,,,'--',,'--',
lattice,643,q,img/target_1.png,3,1,,,,'--',,'--',
lattice,644,e,img/target_3.png,3,9,,,,'--',,'--',
lattice,645,q,img/target_1.png,3,1,,,,'--',,'--',
lattice,646,v,img/target_5.png,3,2,,,,'--',,'--',
lattice,647,i,img/target_8.png,3,0,,,,'--',,'--',
lattice,648,u,img/target_7.png,3,8,,,,'--',,'--',
lattice,649,w,img/target_2.png,3,6,,,,'--',,'--',
lattice,650,u,img/target_7.png,3,8,,,,'--',,'--',
lattice,651,i,img/target_8.png,3,0,,,,'--',,'--',
lattice,652,v,img/target_5.png,3,2,,,,'--',,'--',
lattice,653,q,img/target_1.png,3,1,,,,'--',,'--',
lattice,654,e,img/target_3.png,3,9,,,,'--',,'--',
lattice,655,u,img/target_7.png,3,8,,,,'--',,'--',
lattice,656,r,img/target_4.png,3,7,,,,'--',,'--',
lattice,657,w,img/target_2.png,3,6,,,,'--',,'--',
lattice,658,o,img/target_9.png,3,4,,,,'--',,'--',
lattice,659,v,img/target_5.png,3,2,,,,'--',,'--',
lattice,660,o,img/target_9.png,3,4,,,,'--',,'--',
lattice,661,v,img/target_5.png,3,2,,,,'--',,'--',
lattice,662,p,img/target_10.png,3,3,,,,'--',,'--',
lattice,663,q,img/target_1.png,3,1,,,,'--',,'--',
lattice,664,i,img/target_8.png,3,0,,,,'--',,'--',
lattice,665,e,img/target_3.png,3,9,,,,'--',,'--',
lattice,666,q,img/target_1.png,3,1,,,,'--',,'--',
lattice,667,p,img/target_10.png,3,3,,,,'--',,'--',
lattice,668,o,img/target_9.png,3,4,,,,'--',,'--',
lattice,669,v,img/target_5.png,3,2,,,,'--',,'--',
lattice,670,q,img/target_1.png,3,1,,,,'--',,'--',
lattice,671,e,img/target_3.png,3,9,,,,'--',,'--',
lattice,672,r,img/target_4.png,3,7,,,,'--',,'--',
lattice,673,e,img/target_3.png,3,9,,,,'--',,'--',
lattice,674,i,img/target_8.png,3,0,,,,'--',,'--',
lattice,675,e,img/target_3.png,3,9,,,,'--',,'--',
lattice,676,q,img/target_1.png,3,1,,,,'--',,'--',
lattice,677,p,img/target_10.png,3,3,,,,'--',,'--',
lattice,678,q,img/target_1.png,3,1,,,,'--',,'--',
lattice,679,e,img/target_3.png,3,9,,,,'--',,'--',
lattice,680,r,img/target_4.png,3,7,,,,'--',,'--',
lattice,681,b,img/target_6.png,3,5,,,,'--',,'--',
lattice,682,w,img/target_2.png,3,6,,,,'--',,'--',
lattice,683,r,img/target_4.png,3,7,,,,'--',,'--',
lattice,684,w,img/target_2.png,3,6,,,,'--',,'--',
lattice,685,b,img/target_6.png,3,5,,,,'--',,'--',
lattice,686,r,img/target_4.png,3,7,,,,'--',,'--',
lattice,687,u,img/target_7.png,3,8,,,,'--',,'--',
lattice,688,e,img/target_3.png,3,9,,,,'--',,'--',
lattice,689,r,img/target_4.png,3,7,,,,'--',,'--',
lattice,690,w,img/target_2.png,3,6,,,,'--',,'--',
lattice,691,b,img/target_6.png,3,5,,,,'--',,'--',
lattice,692,p,img/target_10.png,3,3,,,,'--',,'--',
lattice,693,v,img/target_5.png,3,2,,,,'--',,'--',
lattice,694,p,img/target_10.png,3,3,,,,'--',,'--',
lattice,695,b,img/target_6.png,3,5,,,,'--',,'--',
lattice,696,w,img/target_2.png,3,6,,,,'--',,'--',
lattice,697,b,img/target_6.png,3,5,,,,'--',,'--',
lattice,698,r,img/target_4.png,3,7,,,,'--',,'--',
lattice,699,w,img/target_2.png,3,6,,,,'--',,'--',
lattice,700,o,img/target_9.png,3,4,,,,'--',,'--',
lattice,701,p,img/target_10.png,3,3,,,,'--',,'--',
lattice,702,v,img/target_5.png,3,2,,,,'--',,'--',
lattice,703,p,img/target_10.png,3,3,,,,'--',,'--',
lattice,704,q,img/target_1.png,3,1,,,,'--',,'--',
lattice,705,e,img/target_3.png,3,9,,,,'--',,'--',
lattice,706,q,img/target_1.png,3,1,,,,'--',,'--',
lattice,707,e,img/target_3.png,3,9,,,,'--',,'--',
lattice,708,q,img/target_1.png,3,1,,,,'--',,'--',
lattice,709,e,img/target_3.png,3,9,,,,'--',,'--',
lattice,710,r,img/target_4.png,3,7,,,,'--',,'--',
lattice,711,u,img/target_7.png,3,8,,,,'--',,'--',
lattice,712,r,img/target_4.png,3,7,,,,'--',,'--',
lattice,713,w,img/target_2.png,3,6,,,,'--',,'--',
lattice,714,u,img/target_7.png,3,8,,,,'--',,'--',
lattice,715,e,img/target_3.png,3,9,,,,'--',,'--',
lattice,716,u,img/target_7.png,3,8,,,,'--',,'--',
lattice,717,w,img/target_2.png,3,6,,,,'--',,'--',
lattice,718,r,img/target_4.png,3,7,,,,'--',,'--',
lattice,719,w,img/target_2.png,3,6,,,,'--',,'--',
lattice,720,u,img/target_7.png,3,8,,,,'--',,'--',
lattice,721,i,img/target_8.png,3,0,,,,'--',,'--',
lattice,722,u,img/target_7.png,3,8,,,,'--',,'--',
lattice,723,r,img/target_4.png,3,7,,,,'--',,'--',
lattice,724,e,img/target_3.png,3,9,,,,'--',,'--',
lattice,725,i,img/target_8.png,3,0,,,,'--',,'--',
lattice,726,e,img/target_3.png,3,9,,,,'--',,'--',
lattice,727,r,img/target_4.png,3,7,,,,'--',,'--',
lattice,728,w,img/target_2.png,3,6,,,,'--',,'--',
lattice,729,r,img/target_4.png,3,7,,,,'--',,'--',
lattice,730,w,img/target_2.png,3,6,,,,'--',,'--',
lattice,731,u,img/target_7.png,3,8,,,,'--',,'--',
lattice,732,i,img/target_8.png,3,0,,,,'--',,'--',
lattice,733,e,img/target_3.png,3,9,,,,'--',,'--',
lattice,734,i,img/target_8.png,3,0,,,,'--',,'--',
lattice,735,u,img/target_7.png,3,8,,,,'--',,'--',
lattice,736,r,img/target_4.png,3,7,,,,'--',,'--',
lattice,737,w,img/target_2.png,3,6,,,,'--',,'--',
lattice,738,r,img/target_4.png,3,7,,,,'--',,'--',
lattice,739,u,img/target_7.png,3,8,,,,'--',,'--',
lattice,740,w,img/target_2.png,3,6,,,,'--',,'--',
lattice,741,r,img/target_4.png,3,7,,,,'--',,'--',
lattice,742,e,img/target_3.png,3,9,,,,'--',,'--',
lattice,743,i,img/target_8.png,3,0,,,,'--',,'--',
lattice,744,v,img/target_5.png,3,2,,,,'--',,'--',
lattice,745,q,img/target_1.png,3,1,,,,'--',,'--',
lattice,746,p,img/target_10.png,3,3,,,,'--',,'--',
lattice,747,q,img/target_1.png,3,1,,,,'--',,'--',
lattice,748,i,img/target_8.png,3,0,,,,'--',,'--',
lattice,749,u,img/target_7.png,3,8,,,,'--',,'--',
lattice,750,r,img/target_4.png,3,7,,,,'--',,'--',
lattice,751,u,img/target_7.png,3,8,,,,'--',,'--',
lattice,752,w,img/target_2.png,3,6,,,,'--',,'--',
lattice,753,u,img/target_7.png,3,8,,,,'--',,'--',
lattice,754,i,img/target_8.png,3,0,,,,'--',,'--',
lattice,755,e,img/target_3.png,3,9,,,,'--',,'--',
lattice,756,i,img/target_8.png,3,0,,,,'--',,'--',
lattice,757,e,img/target_3.png,3,9,,,,'--',,'--',
lattice,758,i,img/target_8.png,3,0,,,,'--',,'--',
lattice,759,q,img/target_1.png,3,1,,,,'--',,'--',
lattice,760,i,img/target_8.png,3,0,,,,'--',,'--',
lattice,761,u,img/target_7.png,3,8,,,,'--',,'--',
lattice,762,i,img/target_8.png,3,0,,,,'--',,'--',
lattice,763,v,img/target_5.png,3,2,,,,'--',,'--',
lattice,764,i,img/target_8.png,3,0,,,,'--',,'--',
lattice,765,u,img/target_7.png,3,8,,,,'--',,'--',
lattice,766,w,img/target_2.png,3,6,,,,'--',,'--',
lattice,767,b,img/target_6.png,3,5,,,,'--',,'--',
lattice,768,r,img/target_4.png,3,7,,,,'--',,'--',
lattice,769,w,img/target_2.png,3,6,,,,'--',,'--',
lattice,770,u,img/target_7.png,3,8,,,,'--',,'--',
lattice,771,e,img/target_3.png,3,9,,,,'--',,'--',
lattice,772,q,img/target_1.png,3,1,,,,'--',,'--',
lattice,773,v,img/target_5.png,3,2,,,,'--',,'--',
lattice,774,o,img/target_9.png,3,4,,,,'--',,'--',
lattice,775,w,img/target_2.png,3,6,,,,'--',,'--',
lattice,776,o,img/target_9.png,3,4,,,,'--',,'--',
lattice,777,b,img/target_6.png,3,5,,,,'--',,'--',
lattice,778,w,img/target_2.png,3,6,,,,'--',,'--',
lattice,779,o,img/target_9.png,3,4,,,,'--',,'--',
lattice,780,b,img/target_6.png,3,5,,,,'--',,'--',
lattice,781,w,img/target_2.png,3,6,,,,'--',,'--',
lattice,782,u,img/target_7.png,3,8,,,,'--',,'--',
lattice,783,i,img/target_8.png,3,0,,,,'--',,'--',
lattice,784,v,img/target_5.png,3,2,,,,'--',,'--',
lattice,785,o,img/target_9.png,3,4,,,,'--',,'--',
lattice,786,b,img/target_6.png,3,5,,,,'--',,'--',
lattice,787,w,img/target_2.png,3,6,,,,'--',,'--',
lattice,788,u,img/target_7.png,3,8,,,,'--',,'--',
lattice,789,w,img/target_2.png,3,6,,,,'--',,'--',
lattice,790,u,img/target_7.png,3,8,,,,'--',,'--',
lattice,791,i,img/target_8.png,3,0,,,,'--',,'--',
lattice,792,v,img/target_5.png,3,2,,,,'--',,'--',
lattice,793,i,img/target_8.png,3,0,,,,'--',,'--',
lattice,794,e,img/target_3.png,3,9,,,,'--',,'--',
lattice,795,q,img/target_1.png,3,1,,,,'--',,'--',
lattice,796,i,img/target_8.png,3,0,,,,'--',,'--',
lattice,797,e,img/target_3.png,3,9,,,,'--',,'--',
lattice,798,q,img/target_1.png,3,1,,,,'--',,'--',
lattice,799,i,img/target_8.png,3,0,,,,'--',,'--',
lattice,800,e,img/target_3.png,3,9,,,,'--',,'--',
lattice,801,r,img/target_4.png,3,7,,,,'--',,'--',
lattice,802,b,img/target_6.png,3,5,,,,'--',,'--',
lattice,803,o,img/target_9.png,3,4,,,,'--',,'--',
lattice,804,b,img/target_6.png,3,5,,,,'--',,'--',
lattice,805,o,img/target_9.png,3,4,,,,'--',,'--',
lattice,806,p,img/target_10.png,3,3,,,,'--',,'--',
lattice,807,o,img/target_9.png,3,4,,,,'--',,'--',
lattice,808,p,img/target_10.png,3,3,,,,'--',,'--',
lattice,809,v,img/target_5.png,3,2,,,,'--',,'--',
lattice,810,o,img/target_9.png,3,4,,,,'--',,'--',
lattice,811,v,img/target_5.png,3,2,,,,'--',,'--',
lattice,812,i,img/target_8.png,3,0,,,,'--',,'--',
lattice,813,v,img/target_5.png,3,2,,,,'--',,'--',
lattice,814,p,img/target_10.png,3,3,,,,'--',,'--',
lattice,815,q,img/target_1.png,3,1,,,,'--',,'--',
lattice,816,p,img/target_10.png,3,3,,,,'--',,'--',
lattice,817,o,img/target_9.png,3,4,,,,'--',,'--',
lattice,818,v,img/target_5.png,3,2,,,,'--',,'--',
lattice,819,o,img/target_9.png,3,4,,,,'--',,'--',
lattice,820,v,img/target_5.png,3,2,,,,'--',,'--',
lattice,821,p,img/target_10.png,3,3,,,,'--',,'--',
lattice,822,q,img/target_1.png,3,1,,,,'--',,'--',
lattice,823,p,img/target_10.png,3,3,,,,'--',,'--',
lattice,824,b,img/target_6.png,3,5,,,,'--',,'--',
lattice,825,w,img/target_2.png,3,6,,,,'--',,'--',
lattice,826,b,img/target_6.png,3,5,,,,'--',,'--',
lattice,827,r,img/target_4.png,3,7,,,,'--',,'--',
lattice,828,b,img/target_6.png,3,5,,,,'--',,'--',
lattice,829,w,img/target_2.png,3,6,,,,'--',,'--',
lattice,830,o,img/target_9.png,3,4,,,,'--',,'--',
lattice,831,p,img/target_10.png,3,3,,,,'--',,'--',
lattice,832,o,img/target_9.png,3,4,,,,'--',,'--',
lattice,833,p,img/target_10.png,3,3,,,,'--',,'--',
lattice,834,v,img/target_5.png,3,2,,,,'--',,'--',
lattice,835,o,img/target_9.png,3,4,,,,'--',,'--',
lattice,836,p,img/target_10.png,3,3,,,,'--',,'--',
lattice,837,o,img/target_9.png,3,4,,,,'--',,'--',
lattice,838,v,img/target_5.png,3,2,,,,'--',,'--',
lattice,839,q,img/target_1.png,3,1,,,,'--',,'--',
lattice,840,e,img/target_3.png,3,9,,,,'--',,'--',
lattice,841,u,img/target_7.png,3,8,,,,'--',,'--',
lattice,842,i,img/target_8.png,3,0,,,,'--',,'--',
lattice,843,e,img/target_3.png,3,9,,,,'--',,'--',
lattice,844,r,img/target_4.png,3,7,,,,'--',,'--',
lattice,845,u,img/target_7.png,3,8,,,,'--',,'--',
lattice,846,w,img/target_2.png,3,6,,,,'--',,'--',
lattice,847,b,img/target_6.png,3,5,,,,'--',,'--',
lattice,848,p,img/target_10.png,3,3,,,,'--',,'--',
lattice,849,v,img/target_5.png,3,2,,,,'--',,'--',
lattice,850,q,img/target_1.png,3,1,,,,'--',,'--',
lattice,851,e,img/target_3.png,3,9,,,,'--',,'--',
lattice,852,i,img/target_8.png,3,0,,,,'--',,'--',
lattice,853,v,img/target_5.png,3,2,,,,'--',,'--',
lattice,854,q,img/target_1.png,3,1,,,,'--',,'--',
lattice,855,p,img/target_10.png,3,3,,,,'--',,'--',
lattice,856,v,img/target_5.png,3,2,,,,'--',,'--',
lattice,857,q,img/target_1.png,3,1,,,,'--',,'--',
lattice,858,i,img/target_8.png,3,0,,,,'--',,'--',
lattice,859,e,img/target_3.png,3,9,,,,'--',,'--',
lattice,860,u,img/target_7.png,3,8,,,,'--',,'--',
lattice,861,e,img/target_3.png,3,9,,,,'--',,'--',
lattice,862,r,img/target_4.png,3,7,,,,'--',,'--',
lattice,863,b,img/target_6.png,3,5,,,,'--',,'--',
lattice,864,w,img/target_2.png,3,6,,,,'--',,'--',
lattice,865,r,img/target_4.png,3,7,,,,'--',,'--',
lattice,866,u,img/target_7.png,3,8,,,,'--',,'--',
lattice,867,i,img/target_8.png,3,0,,,,'--',,'--',
lattice,868,q,img/target_1.png,3,1,,,,'--',,'--',
lattice,869,p,img/target_10.png,3,3,,,,'--',,'--',
lattice,870,o,img/target_9.png,3,4,,,,'--',,'--',
lattice,871,v,img/target_5.png,3,2,,,,'--',,'--',
lattice,872,i,img/target_8.png,3,0,,,,'--',,'--',
lattice,873,v,img/target_5.png,3,2,,,,'--',,'--',
lattice,874,q,img/target_1.png,3,1,,,,'--',,'--',
lattice,875,e,img/target_3.png,3,9,,,,'--',,'--',
lattice,876,r,img/target_4.png,3,7,,,,'--',,'--',
lattice,877,u,img/target_7.png,3,8,,,,'--',,'--',
lattice,878,i,img/target_8.png,3,0,,,,'--',,'--',
lattice,879,e,img/target_3.png,3,9,,,,'--',,'--',
lattice,880,q,img/target_1.png,3,1,,,,'--',,'--',
lattice,881,v,img/target_5.png,3,2,,,,'--',,'--',
lattice,882,o,img/target_9.png,3,4,,,,'--',,'--',
lattice,883,v,img/target_5.png,3,2,,,,'--',,'--',
lattice,884,q,img/target_1.png,3,1,,,,'--',,'--',
lattice,885,e,img/target_3.png,3,9,,,,'--',,'--',
lattice,886,q,img/target_1.png,3,1,,,,'--',,'--',
lattice,887,e,img/target_3.png,3,9,,,,'--',,'--',
lattice,888,r,img/target_4.png,3,7,,,,'--',,'--',
lattice,889,b,img/target_6.png,3,5,,,,'--',,'--',
lattice,890,w,img/target_2.png,3,6,,,,'--',,'--',
lattice,891,r,img/target_4.png,3,7,,,,'--',,'--',
lattice,892,b,img/target_6.png,3,5,,,,'--',,'--',
lattice,893,o,img/target_9.png,3,4,,,,'--',,'--',
lattice,894,p,img/target_10.png,3,3,,,,'--',,'--',
lattice,895,b,img/target_6.png,3,5,,,,'--',,'--',
lattice,896,r,img/target_4.png,3,7,,,,'--',,'--',
lattice,897,u,img/target_7.png,3,8,,,,'--',,'--',
lattice,898,e,img/target_3.png,3,9,,,,'--',,'--',
lattice,899,r,img/target_4.png,3,7,,,,'--',,'--',
lattice,900,e,img/target_3.png,3,9,,,,'--',,'--',
lattice,901,r,img/target_4.png,3,7,,,,'--',,'--',
lattice,902,b,img/target_6.png,3,5,,,,'--',,'--',
lattice,903,r,img/target_4.png,3,7,,,,'--',,'--',
lattice,904,e,img/target_3.png,3,9,,,,'--',,'--',
lattice,905,u,img/target_7.png,3,8,,,,'--',,'--',
lattice,906,i,img/target_8.png,3,0,,,,'--',,'--',
lattice,907,v,img/target_5.png,3,2,,,,'--',,'--',
lattice,908,p,img/target_10.png,3,3,,,,'--',,'--',
lattice,909,o,img/target_9.png,3,4,,,,'--',,'--',
lattice,910,p,img/target_10.png,3,3,,,,'--',,'--',
lattice,911,o,img/target_9.png,3,4,,,,'--',,'--',
lattice,912,w,img/target_2.png,3,6,,,,'--',,'--',
lattice,913,b,img/target_6.png,3,5,,,,'--',,'--',
lattice,914,p,img/target_10.png,3,3,,,,'--',,'--',
lattice,915,v,img/target_5.png,3,2,,,,'--',,'--',
lattice,916,o,img/target_9.png,3,4,,,,'--',,'--',
lattice,917,w,img/target_2.png,3,6,,,,'--',,'--',
lattice,918,r,img/target_4.png,3,7,,,,'--',,'--',
lattice,919,u,img/target_7.png,3,8,,,,'--',,'--',
lattice,920,r,img/target_4.png,3,7,,,,'--',,'--',
lattice,921,w,img/target_2.png,3,6,,,,'--',,'--',
lattice,922,b,img/target_6.png,3,5,,,,'--',,'--',
lattice,923,o,img/target_9.png,3,4,,,,'--',,'--',
lattice,924,w,img/target_2.png,3,6,,,,'--',,'--',
lattice,925,r,img/target_4.png,3,7,,,,'--',,'--',
lattice,926,u,img/target_7.png,3,8,,,,'--',,'--',
lattice,927,r,img/target_4.png,3,7,,,,'--',,'--',
lattice,928,e,img/target_3.png,3,9,,,,'--',,'--',
lattice,929,u,img/target_7.png,3,8,,,,'--',,'--',
lattice,930,e,img/target_3.png,3,9,,,,'--',,'--',
lattice,931,r,img/target_4.png,3,7,,,,'--',,'--',
lattice,932,e,img/target_3.png,3,9,,,,'--',,'--',
lattice,933,r,img/target_4.png,3,7,,,,'--',,'--',
lattice,934,e,img/target_3.png,3,9,,,,'--',,'--',
lattice,935,r,img/target_4.png,3,7,,,,'--',,'--',
lattice,936,e,img/target_3.png,3,9,,,,'--',,'--',
lattice,937,i,img/target_8.png,3,0,,,,'--',,'--',
lattice,938,q,img/target_1.png,3,1,,,,'--',,'--',
lattice,939,p,img/target_10.png,3,3,,,,'--',,'--',
lattice,940,v,img/target_5.png,3,2,,,,'--',,'--',
lattice,941,p,img/target_10.png,3,3,,,,'--',,'--',
lattice,942,q,img/target_1.png,3,1,,,,'--',,'--',
lattice,943,p,img/target_10.png,3,3,,,,'--',,'--',
lattice,944,q,img/target_1.png,3,1,,,,'--',,'--',
lattice,945,p,img/target_10.png,3,3,,,,'--',,'--',
lattice,946,o,img/target_9.png,3,4,,,,'--',,'--',
lattice,947,w,img/target_2.png,3,6,,,,'--',,'--',
lattice,948,o,img/target_9.png,3,4,,,,'--',,'--',
lattice,949,w,img/target_2.png,3,6,,,,'--',,'--',
lattice,950,o,img/target_9.png,3,4,,,,'--',,'--',
lattice,951,b,img/target_6.png,3,5,,,,'--',,'--',
lattice,952,w,img/target_2.png,3,6,,,,'--',,'--',
lattice,953,o,img/target_9.png,3,4,,,,'--',,'--',
lattice,954,w,img/target_2.png,3,6,,,,'--',,'--',
lattice,955,o,img/target_9.png,3,4,,,,'--',,'--',
lattice,956,b,img/target_6.png,3,5,,,,'--',,'--',
lattice,957,p,img/target_10.png,3,3,,,,'--',,'--',
lattice,958,b,img/target_6.png,3,5,,,,'--',,'--',
lattice,959,o,img/target_9.png,3,4,,,,'--',,'--',
lattice,960,b,img/target_6.png,3,5,,,,'--',,'--',
lattice,961,r,img/target_4.png,3,7,,,,'--',,'--',
lattice,962,e,img/target_3.png,3,9,,,,'--',,'--',
lattice,963,i,img/target_8.png,3,0,,,,'--',,'--',
lattice,964,u,img/target_7.png,3,8,,,,'--',,'--',
lattice,965,r,img/target_4.png,3,7,,,,'--',,'--',
lattice,966,b,img/target_6.png,3,5,,,,'--',,'--',
lattice,967,r,img/target_4.png,3,7,,,,'--',,'--',
lattice,968,u,img/target_7.png,3,8,,,,'--',,'--',
lattice,969,r,img/target_4.png,3,7,,,,'--',,'--',
lattice,970,w,img/target_2.png,3,6,,,,'--',,'--',
lattice,971,o,img/target_9.png,3,4,,,,'--',,'--',
lattice,972,v,img/target_5.png,3,2,,,,'--',,'--',
lattice,973,i,img/target_8.png,3,0,,,,'--',,'--',
lattice,974,v,img/target_5.png,3,2,,,,'--',,'--',
lattice,975,q,img/target_1.png,3,1,,,,'--',,'--',
lattice,976,p,img/target_10.png,3,3,,,,'--',,'--',
lattice,977,v,img/target_5.png,3,2,,,,'--',,'--',
lattice,978,i,img/target_8.png,3,0,,,,'--',,'--',
lattice,979,e,img/target_3.png,3,9,,,,'--',,'--',
lattice,980,r,img/target_4.png,3,7,,,,'--',,'--',
lattice,981,e,img/target_3.png,3,9,,,,'--',,'--',
lattice,982,q,img/target_1.png,3,1,,,,'--',,'--',
lattice,983,i,img/target_8.png,3,0,,,,'--',,'--',
lattice,984,q,img/target_1.png,3,1,,,,'--',,'--',
lattice,985,e,img/target_3.png,3,9,,,,'--',,'--',
lattice,986,q,img/target_1.png,3,1,,,,'--',,'--',
lattice,987,i,img/target_8.png,3,0,,,,'--',,'--',
lattice,988,q,img/target_1.png,3,1,,,,'--',,'--',
lattice,989,v,img/target_5.png,3,2,,,,'--',,'--',
lattice,990,q,img/target_1.png,3,1,,,,'--',,'--',
lattice,991,i,img/target_8.png,3,0,,,,'--',,'--',
lattice,992,u,img/target_7.png,3,8,,,,'--',,'--',
lattice,993,r,img/target_4.png,3,7,,,,'--',,'--',
lattice,994,b,img/target_6.png,3,5,,,,'--',,'--',
lattice,995,p,img/target_10.png,3,3,,,,'--',,'--',
lattice,996,b,img/target_6.png,3,5,,,,'--',,'--',
lattice,997,r,img/target_4.png,3,7,,,,'--',,'--',
lattice,998,w,img/target_2.png,3,6,,,,'--',,'--',
lattice,999,u,img/target_7.png,3,8,,,,'--',,'--',
lattice,1000,w,img/target_2.png,3,6,,,,'--',,'--',

extraInfo
START,1.59740447998e-05
