graph,trialNum,resp,path,pID,walk,ISI_raw,correct_raw,onset_raw,resp_raw,rt_raw,typing_raw,order
modular,1,u,img/target_7.png,2,1,0.05000000074505806,1.0,0.009602785110473633,['u'],0.7150030136108398,a,0.0
modular,2,o,img/target_9.png,2,4,0.05000000074505806,1.0,0.8289408683776855,['o'],0.5590629577636719,a,1.0
modular,3,q,img/target_1.png,2,2,0.05000000074505806,1.0,1.477963924407959,['q'],0.7252628803253174,a,2.0
modular,4,w,img/target_2.png,2,0,0.05000000074505806,1.0,2.292271852493286,['w'],0.5679459571838379,a,3.0
modular,5,p,img/target_10.png,2,9,0.05000000074505806,1.0,2.961610794067383,['p'],0.5212600231170654,a,4.0
modular,6,v,img/target_5.png,2,7,0.05000000074505806,1.0,3.5777018070220947,['v'],0.6178231239318848,a,5.0
modular,7,b,img/target_6.png,2,8,0.05000000074505806,1.0,4.295251846313477,['b'],0.46070098876953125,a,6.0
modular,8,v,img/target_5.png,2,7,0.05000000074505806,1.0,4.8564910888671875,['v'],0.5713000297546387,a,7.0
modular,9,e,img/target_3.png,2,5,0.05000000074505806,1.0,5.527458190917969,['e'],0.6031589508056641,a,8.0
modular,10,v,img/target_5.png,2,7,0.05000000074505806,1.0,6.222927093505859,['v'],0.5567431449890137,a,9.0
modular,11,i,img/target_8.png,2,6,0.05000000074505806,1.0,6.878765106201172,['i'],0.5247049331665039,a,10.0
modular,12,e,img/target_3.png,2,5,0.05000000074505806,1.0,7.489529609680176,['e'],0.657912015914917,a,11.0
modular,13,b,img/target_6.png,2,8,0.05000000074505806,1.0,8.240118980407715,['b'],0.6276669502258301,a,12.0
modular,14,p,img/target_10.png,2,9,0.05000000074505806,1.0,8.95626163482666,['p'],0.49420905113220215,a,13.0
modular,15,i,img/target_8.png,2,6,0.05000000074505806,1.0,9.539642333984375,['i'],0.5991690158843994,a,14.0
modular,16,e,img/target_3.png,2,5,0.05000000074505806,1.0,10.239362716674805,['e'],0.8358309268951416,a,15.0
modular,17,v,img/target_5.png,2,7,0.05000000074505806,1.0,11.176922798156738,['v'],0.4895660877227783,a,16.0
modular,18,b,img/target_6.png,2,8,0.05000000074505806,1.0,11.757080078125,['b'],0.43750715255737305,a,17.0
modular,19,e,img/target_3.png,2,5,0.05000000074505806,1.0,12.290483474731445,['e'],0.5279660224914551,a,18.0
modular,20,i,img/target_8.png,2,6,0.05000000074505806,1.0,12.907401084899902,['i'],0.6401240825653076,a,19.0
modular,21,b,img/target_6.png,2,8,0.05000000074505806,1.0,13.640301704406738,['b'],0.5699779987335205,a,20.0
modular,22,v,img/target_5.png,2,7,0.05000000074505806,1.0,14.306183815002441,['v'],0.44049906730651855,a,21.0
modular,23,e,img/target_3.png,2,5,0.05000000074505806,1.0,14.840299606323242,['e'],0.5057530403137207,a,22.0
modular,24,o,img/target_9.png,2,4,0.05000000074505806,1.0,15.446012496948242,['o'],0.6601669788360596,a,23.0
modular,25,u,img/target_7.png,2,1,0.05000000074505806,1.0,16.195173263549805,['u'],0.6469771862030029,a,24.0
modular,26,w,img/target_2.png,2,0,0.05000000074505806,1.0,16.940975189208984,['w'],1.0130529403686523,a,25.0
modular,27,u,img/target_7.png,2,1,0.05000000074505806,1.0,18.039901733398438,['u'],0.5468771457672119,a,26.0
modular,28,r,img/target_4.png,2,3,0.05000000074505806,1.0,18.678491592407227,['r'],0.7165060043334961,a,27.0
modular,29,q,img/target_1.png,2,2,0.05000000074505806,1.0,19.49236297607422,['q'],0.49348998069763184,a,28.0
modular,30,u,img/target_7.png,2,1,0.05000000074505806,1.0,20.074066162109375,['u'],0.6803538799285889,a,29.0
modular,31,o,img/target_9.png,2,4,0.05000000074505806,1.0,20.83997344970703,['o'],0.6177449226379395,a,30.0
modular,32,u,img/target_7.png,2,1,0.05000000074505806,1.0,21.557445526123047,['u'],0.5882530212402344,a,31.0
modular,33,o,img/target_9.png,2,4,0.05000000074505806,1.0,22.242015838623047,['o'],0.5445818901062012,a,32.0
modular,34,e,img/target_3.png,2,5,0.05000000074505806,1.0,22.875885009765625,['e'],0.7824149131774902,a,33.0
modular,35,b,img/target_6.png,2,8,0.05000000074505806,1.0,23.757646560668945,['b'],0.5888011455535889,a,34.0
modular,36,i,img/target_8.png,2,6,0.05000000074505806,1.0,24.440670013427734,['i'],0.5529978275299072,a,35.0
modular,37,e,img/target_3.png,2,5,0.05000000074505806,1.0,25.091230392456055,['e'],1.1833181381225586,a,36.0
modular,38,b,img/target_6.png,2,8,0.05000000074505806,1.0,26.374752044677734,['b'],0.5077390670776367,a,37.0
modular,39,e,img/target_3.png,2,5,0.05000000074505806,1.0,26.974422454833984,['e'],0.43491697311401367,a,38.0
modular,40,o,img/target_9.png,2,4,0.05000000074505806,1.0,27.50796127319336,['o'],0.5184078216552734,a,39.0
modular,41,u,img/target_7.png,2,1,0.05000000074505806,1.0,28.124984741210938,['u'],0.47731614112854004,a,40.0
modular,42,r,img/target_4.png,2,3,0.05000000074505806,1.0,28.691011428833008,['r'],0.5102670192718506,a,41.0
modular,43,w,img/target_2.png,2,0,0.05000000074505806,1.0,29.290748596191406,['w'],0.47977304458618164,a,42.0
modular,44,q,img/target_1.png,2,2,0.05000000074505806,1.0,29.858230590820312,['q'],0.48020315170288086,a,43.0
modular,45,w,img/target_2.png,2,0,0.05000000074505806,1.0,30.440664291381836,['w'],0.4976351261138916,a,44.0
modular,46,u,img/target_7.png,2,1,0.05000000074505806,1.0,31.024690628051758,['u'],0.4483630657196045,a,45.0
modular,47,o,img/target_9.png,2,4,0.05000000074505806,1.0,31.55809783935547,['o'],0.48365306854248047,a,46.0
modular,48,q,img/target_1.png,2,2,0.05000000074505806,1.0,32.14154815673828,['q'],0.779547929763794,a,47.0
modular,49,u,img/target_7.png,2,1,0.05000000074505806,1.0,33.00728988647461,['u'],0.5296239852905273,a,48.0
modular,50,r,img/target_4.png,2,3,0.05000000074505806,0.0,33.62518310546875,['r'],1.3447918891906738,a,49.0
modular,51,u,img/target_7.png,2,1,0.05000000074505806,1.0,35.043739318847656,['u'],0.6451351642608643,a,50.0
modular,52,q,img/target_1.png,2,2,0.05000000074505806,1.0,35.77474594116211,['q'],0.49895596504211426,a,51.0
modular,53,u,img/target_7.png,2,1,0.05000000074505806,1.0,36.37449645996094,['u'],0.49130702018737793,a,52.0
modular,54,q,img/target_1.png,2,2,0.05000000074505806,1.0,36.9586296081543,['q'],0.5541219711303711,a,53.0
modular,55,u,img/target_7.png,2,1,0.05000000074505806,1.0,37.60758590698242,['u'],0.46577906608581543,a,54.0
modular,56,r,img/target_4.png,2,3,0.05000000074505806,1.0,38.158714294433594,['r'],0.5380699634552002,a,55.0
modular,57,u,img/target_7.png,2,1,0.05000000074505806,1.0,38.79204559326172,['u'],0.47257399559020996,a,56.0
modular,58,r,img/target_4.png,2,3,0.05000000074505806,1.0,39.358306884765625,['r'],0.47435808181762695,a,57.0
modular,59,q,img/target_1.png,2,2,0.05000000074505806,1.0,39.925193786621094,['q'],0.42825913429260254,a,58.0
modular,60,w,img/target_2.png,2,0,0.05000000074505806,1.0,40.44324493408203,['w'],0.5580079555511475,a,59.0
modular,61,u,img/target_7.png,2,1,0.05000000074505806,1.0,41.092041015625,['u'],0.4456300735473633,a,60.0
modular,62,o,img/target_9.png,2,4,0.05000000074505806,1.0,41.62587356567383,['o'],0.5507299900054932,a,61.0
modular,63,e,img/target_3.png,2,5,0.05000000074505806,1.0,42.27577209472656,['e'],0.780601978302002,a,62.0
modular,64,i,img/target_8.png,2,6,0.05000000074505806,1.0,43.14177703857422,['i'],0.6751439571380615,a,63.0
modular,65,v,img/target_5.png,2,7,0.05000000074505806,1.0,43.90884780883789,['v'],0.6434459686279297,a,64.0
modular,66,i,img/target_8.png,2,6,0.05000000074505806,1.0,44.64229202270508,['i'],1.110023021697998,a,65.0
modular,67,v,img/target_5.png,2,7,0.05000000074505806,1.0,45.8424186706543,['v'],0.5338709354400635,a,66.0
modular,68,b,img/target_6.png,2,8,0.05000000074505806,0.0,46.47593307495117,['b'],2.0930819511413574,a,67.0
modular,69,e,img/target_3.png,2,5,0.05000000074505806,1.0,48.642486572265625,['e'],0.6307621002197266,a,68.0
modular,70,i,img/target_8.png,2,6,0.05000000074505806,1.0,49.377445220947266,['i'],0.6075048446655273,a,69.0
modular,71,e,img/target_3.png,2,5,0.05000000074505806,1.0,50.0758171081543,['e'],0.5485491752624512,a,70.0
modular,72,i,img/target_8.png,2,6,0.05000000074505806,1.0,50.70988845825195,['i'],0.5860080718994141,a,71.0
modular,73,v,img/target_5.png,2,7,0.05000000074505806,1.0,51.39311599731445,['v'],0.750845193862915,a,72.0
modular,74,i,img/target_8.png,2,6,0.05000000074505806,1.0,52.24364471435547,['i'],0.5321550369262695,a,73.0
modular,75,p,img/target_10.png,2,9,0.05000000074505806,1.0,52.876792907714844,['p'],0.5562500953674316,a,74.0
modular,76,w,img/target_2.png,2,0,0.05000000074505806,1.0,53.52691650390625,['w'],0.9773058891296387,a,75.0
modular,77,u,img/target_7.png,2,1,0.05000000074505806,1.0,54.592350006103516,['u'],0.7033979892730713,a,76.0
modular,78,r,img/target_4.png,2,3,0.05000000074505806,1.0,55.393680572509766,['r'],0.7259531021118164,a,77.0
modular,79,w,img/target_2.png,2,0,0.05000000074505806,1.0,56.209747314453125,['w'],0.6867599487304688,a,78.0
modular,80,u,img/target_7.png,2,1,0.05000000074505806,1.0,56.993438720703125,['u'],0.5819659233093262,a,79.0
modular,81,o,img/target_9.png,2,4,0.05000000074505806,1.0,57.65915298461914,['o'],0.4773519039154053,a,80.0
modular,82,q,img/target_1.png,2,2,0.05000000074505806,1.0,58.22645568847656,['q'],0.733119010925293,a,81.0
modular,83,o,img/target_9.png,2,4,0.05000000074505806,1.0,59.063053131103516,['o'],0.704240083694458,a,82.0
modular,84,e,img/target_3.png,2,5,0.05000000074505806,1.0,59.8600959777832,['e'],0.7238960266113281,a,83.0
modular,85,b,img/target_6.png,2,8,0.05000000074505806,1.0,60.67696762084961,['b'],1.019313097000122,a,84.0
modular,86,i,img/target_8.png,2,6,0.05000000074505806,1.0,61.79366683959961,['i'],0.678131103515625,a,85.0
modular,87,p,img/target_10.png,2,9,0.05000000074505806,1.0,62.56070327758789,['p'],0.526608943939209,a,86.0
modular,88,b,img/target_6.png,2,8,0.05000000074505806,1.0,63.177490234375,['b'],0.6537878513336182,a,87.0
modular,89,e,img/target_3.png,2,5,0.05000000074505806,1.0,63.92600631713867,['e'],0.5782949924468994,a,88.0
modular,90,i,img/target_8.png,2,6,0.05000000074505806,1.0,64.5934829711914,['i'],0.8457081317901611,a,89.0
modular,91,v,img/target_5.png,2,7,0.05000000074505806,1.0,65.52730560302734,['v'],0.5285181999206543,a,90.0
modular,92,e,img/target_3.png,2,5,0.05000000074505806,1.0,66.1441421508789,['e'],0.5667409896850586,a,91.0
modular,93,v,img/target_5.png,2,7,0.05000000074505806,1.0,66.81098175048828,['v'],0.4366950988769531,a,92.0
modular,94,p,img/target_10.png,2,9,0.05000000074505806,1.0,67.34390258789062,['p'],0.495560884475708,a,93.0
modular,95,w,img/target_2.png,2,0,0.05000000074505806,1.0,67.9273452758789,['w'],0.8636658191680908,a,94.0
modular,96,p,img/target_10.png,2,9,0.05000000074505806,1.0,68.87921142578125,['p'],0.5366249084472656,a,95.0
modular,97,w,img/target_2.png,2,0,0.05000000074505806,1.0,69.51319122314453,['w'],0.5977110862731934,a,96.0
modular,98,u,img/target_7.png,2,1,0.05000000074505806,1.0,70.21072387695312,['u'],0.5558321475982666,a,97.0
modular,99,o,img/target_9.png,2,4,0.05000000074505806,1.0,70.8607177734375,['o'],0.5778450965881348,a,98.0
modular,100,q,img/target_1.png,2,2,0.05000000074505806,1.0,71.5279312133789,['q'],0.5114841461181641,a,99.0
modular,101,o,img/target_9.png,2,4,0.05000000074505806,1.0,72.12826538085938,['o'],0.5028209686279297,a,100.0
modular,102,r,img/target_4.png,2,3,0.05000000074505806,1.0,72.72832489013672,['r'],0.5661849975585938,a,101.0
modular,103,w,img/target_2.png,2,0,0.05000000074505806,1.0,73.39816284179688,['w'],0.6243162155151367,a,102.0
modular,104,p,img/target_10.png,2,9,0.05000000074505806,1.0,74.1104965209961,['p'],0.6328518390655518,a,103.0
modular,105,b,img/target_6.png,2,8,0.05000000074505806,1.0,74.84442138671875,['b'],0.6027519702911377,a,104.0
modular,106,e,img/target_3.png,2,5,0.05000000074505806,1.0,75.54364776611328,['e'],0.6152610778808594,a,105.0
modular,107,b,img/target_6.png,2,8,0.05000000074505806,1.0,76.24451446533203,['b'],0.47490596771240234,a,106.0
modular,108,p,img/target_10.png,2,9,0.05000000074505806,1.0,76.81376647949219,['p'],0.528364896774292,a,107.0
modular,109,b,img/target_6.png,2,8,0.05000000074505806,1.0,77.42798614501953,['b'],0.5473887920379639,a,108.0
modular,110,i,img/target_8.png,2,6,0.05000000074505806,1.0,78.0782241821289,['i'],0.5601959228515625,a,109.0
modular,111,b,img/target_6.png,2,8,0.05000000074505806,1.0,78.72730255126953,['b'],0.542963981628418,a,110.0
modular,112,v,img/target_5.png,2,7,0.05000000074505806,1.0,79.36172485351562,['v'],0.5410189628601074,a,111.0
modular,113,b,img/target_6.png,2,8,0.05000000074505806,1.0,79.9949722290039,['b'],0.6272308826446533,a,112.0
modular,114,i,img/target_8.png,2,6,0.05000000074505806,1.0,80.7142562866211,['i'],0.5716660022735596,a,113.0
modular,115,e,img/target_3.png,2,5,0.05000000074505806,1.0,81.37871551513672,['e'],0.6351590156555176,a,114.0
modular,116,v,img/target_5.png,2,7,0.05000000074505806,1.0,82.11211395263672,['v'],0.5266880989074707,a,115.0
modular,117,b,img/target_6.png,2,8,0.05000000074505806,1.0,82.72808837890625,['b'],0.4228699207305908,a,116.0
modular,118,i,img/target_8.png,2,6,0.05000000074505806,1.0,83.24522399902344,['i'],0.4652140140533447,a,117.0
modular,119,v,img/target_5.png,2,7,0.05000000074505806,1.0,83.8118896484375,['v'],0.43406200408935547,a,118.0
modular,120,e,img/target_3.png,2,5,0.05000000074505806,1.0,84.34425354003906,['e'],0.5580558776855469,a,119.0
modular,121,o,img/target_9.png,2,4,0.05000000074505806,0.0,84.993896484375,['o'],1.5319819450378418,a,120.0
modular,122,r,img/target_4.png,2,3,0.05000000074505806,1.0,86.59474182128906,['r'],0.6602261066436768,a,121.0
modular,123,o,img/target_9.png,2,4,0.05000000074505806,1.0,87.3452377319336,['o'],0.5162820816040039,a,122.0
modular,124,e,img/target_3.png,2,5,0.05000000074505806,1.0,87.9622802734375,['e'],0.6843888759613037,a,123.0
modular,125,b,img/target_6.png,2,8,0.05000000074505806,1.0,88.74542999267578,['b'],0.5402278900146484,a,124.0
modular,126,i,img/target_8.png,2,6,0.05000000074505806,0.0,89.37814331054688,['i'],1.332515001296997,a,125.0
modular,127,e,img/target_3.png,2,5,0.05000000074505806,0.0,90.79536437988281,['e'],1.163072109222412,a,126.0
modular,128,o,img/target_9.png,2,4,0.05000000074505806,1.0,92.0289306640625,['o'],0.7609870433807373,a,127.0
modular,129,e,img/target_3.png,2,5,0.05000000074505806,1.0,92.8792953491211,['e'],0.557981014251709,a,128.0
modular,130,o,img/target_9.png,2,4,0.05000000074505806,1.0,93.52914428710938,['o'],0.5722148418426514,a,129.0
modular,131,q,img/target_1.png,2,2,0.05000000074505806,1.0,94.19584655761719,['q'],0.6093599796295166,a,130.0
modular,132,r,img/target_4.png,2,3,0.05000000074505806,1.0,94.89537048339844,['r'],0.5746500492095947,a,131.0
modular,133,w,img/target_2.png,2,0,0.05000000074505806,1.0,95.5624771118164,['w'],0.7465581893920898,a,132.0
modular,134,r,img/target_4.png,2,3,0.05000000074505806,1.0,96.39546203613281,['r'],0.5389020442962646,a,133.0
modular,135,o,img/target_9.png,2,4,0.05000000074505806,1.0,97.029052734375,['o'],0.5679779052734375,a,134.0
modular,136,u,img/target_7.png,2,1,0.05000000074505806,1.0,97.69648742675781,['u'],0.5565128326416016,a,135.0
modular,137,o,img/target_9.png,2,4,0.05000000074505806,1.0,98.34622955322266,['o'],0.5307149887084961,a,136.0
modular,138,e,img/target_3.png,2,5,0.05000000074505806,1.0,98.96312713623047,['e'],0.6899640560150146,a,137.0
modular,139,i,img/target_8.png,2,6,0.05000000074505806,1.0,99.7458267211914,['i'],0.6830761432647705,a,138.0
modular,140,p,img/target_10.png,2,9,0.05000000074505806,1.0,100.52925109863281,['p'],0.6435987949371338,a,139.0
modular,141,i,img/target_8.png,2,6,0.05000000074505806,0.0,101.26459503173828,['i'],1.3090848922729492,a,140.0
modular,142,v,img/target_5.png,2,7,0.05000000074505806,1.0,102.64632415771484,['v'],0.8154001235961914,a,141.0
modular,143,b,img/target_6.png,2,8,0.05000000074505806,1.0,103.56275177001953,['b'],0.4751160144805908,a,142.0
modular,144,p,img/target_10.png,2,9,0.05000000074505806,1.0,104.12959289550781,['p'],0.619006872177124,a,143.0
modular,145,b,img/target_6.png,2,8,0.05000000074505806,1.0,104.8457260131836,['b'],0.4718470573425293,a,144.0
modular,146,i,img/target_8.png,2,6,0.05000000074505806,1.0,105.41338348388672,['i'],0.5038578510284424,a,145.0
modular,147,b,img/target_6.png,2,8,0.05000000074505806,1.0,106.01445007324219,['b'],0.47933197021484375,a,146.0
modular,148,e,img/target_3.png,2,5,0.05000000074505806,1.0,106.59834289550781,['e'],0.6222860813140869,a,147.0
modular,149,o,img/target_9.png,2,4,0.05000000074505806,1.0,107.31318664550781,['o'],0.6355860233306885,a,148.0
modular,150,u,img/target_7.png,2,1,0.05000000074505806,1.0,108.04682159423828,['u'],0.7665648460388184,a,149.0
modular,151,r,img/target_4.png,2,3,0.05000000074505806,1.0,108.91360473632812,['r'],0.5786840915679932,a,150.0
modular,152,o,img/target_9.png,2,4,0.05000000074505806,1.0,109.57952117919922,['o'],0.5453071594238281,a,151.0
modular,153,r,img/target_4.png,2,3,0.05000000074505806,1.0,110.213623046875,['r'],0.4705779552459717,a,152.0
modular,154,q,img/target_1.png,2,2,0.05000000074505806,1.0,110.77918243408203,['q'],0.47295713424682617,a,153.0
modular,155,o,img/target_9.png,2,4,0.05000000074505806,1.0,111.34590911865234,['o'],0.6340928077697754,a,154.0
modular,156,q,img/target_1.png,2,2,0.05000000074505806,1.0,112.07981872558594,['q'],0.5731480121612549,a,155.0
modular,157,r,img/target_4.png,2,3,0.05000000074505806,1.0,112.74703979492188,['r'],0.44986486434936523,a,156.0
modular,158,o,img/target_9.png,2,4,0.05000000074505806,1.0,113.29806518554688,['o'],0.5542168617248535,a,157.0
modular,159,q,img/target_1.png,2,2,0.05000000074505806,1.0,113.94715881347656,['q'],0.6095359325408936,a,158.0
modular,160,o,img/target_9.png,2,4,0.05000000074505806,1.0,114.64718627929688,['o'],0.644819974899292,a,159.0
modular,161,q,img/target_1.png,2,2,0.05000000074505806,1.0,115.3795394897461,['q'],0.4244110584259033,a,160.0
modular,162,w,img/target_2.png,2,0,0.05000000074505806,1.0,115.89739990234375,['w'],0.8905141353607178,a,161.0
modular,163,u,img/target_7.png,2,1,0.05000000074505806,1.0,116.87994384765625,['u'],0.5002920627593994,a,162.0
modular,164,w,img/target_2.png,2,0,0.05000000074505806,1.0,117.47991943359375,['w'],0.9809651374816895,a,163.0
modular,165,p,img/target_10.png,2,9,0.05000000074505806,1.0,118.56414794921875,['p'],0.5673940181732178,a,164.0
modular,166,i,img/target_8.png,2,6,0.05000000074505806,1.0,119.23136901855469,['i'],1.029102087020874,a,165.0
modular,167,p,img/target_10.png,2,9,0.05000000074505806,1.0,120.36327362060547,['p'],0.4411478042602539,a,166.0
modular,168,i,img/target_8.png,2,6,0.05000000074505806,1.0,120.8967056274414,['i'],0.6116678714752197,a,167.0
modular,169,p,img/target_10.png,2,9,0.05000000074505806,1.0,121.59748840332031,['p'],0.5591700077056885,a,168.0
modular,170,v,img/target_5.png,2,7,0.05000000074505806,1.0,122.24917602539062,['v'],0.6503729820251465,a,169.0
modular,171,p,img/target_10.png,2,9,0.05000000074505806,1.0,122.99671173095703,['p'],0.4956181049346924,a,170.0
modular,172,b,img/target_6.png,2,8,0.05000000074505806,1.0,123.58280944824219,['b'],0.5405681133270264,a,171.0
modular,173,i,img/target_8.png,2,6,0.05000000074505806,1.0,124.21337127685547,['i'],1.0299410820007324,a,172.0
modular,174,b,img/target_6.png,2,8,0.05000000074505806,1.0,125.33331298828125,['b'],0.5177850723266602,a,173.0
modular,175,p,img/target_10.png,2,9,0.05000000074505806,1.0,125.94801330566406,['p'],0.48029398918151855,a,174.0
modular,176,b,img/target_6.png,2,8,0.05000000074505806,1.0,126.53146362304688,['b'],0.4806368350982666,a,175.0
modular,177,e,img/target_3.png,2,5,0.05000000074505806,1.0,127.11454772949219,['e'],0.6408331394195557,a,176.0
modular,178,o,img/target_9.png,2,4,0.05000000074505806,1.0,127.84778594970703,['o'],0.7801740169525146,a,177.0
modular,179,u,img/target_7.png,2,1,0.05000000074505806,1.0,128.73106384277344,['u'],0.5358800888061523,a,178.0
modular,180,w,img/target_2.png,2,0,0.05000000074505806,1.0,129.36399841308594,['w'],0.8400828838348389,a,179.0
modular,181,q,img/target_1.png,2,2,0.05000000074505806,1.0,130.29734802246094,['q'],0.5698668956756592,a,180.0
modular,182,w,img/target_2.png,2,0,0.05000000074505806,1.0,130.9651641845703,['w'],0.4858579635620117,a,181.0
modular,183,p,img/target_10.png,2,9,0.05000000074505806,1.0,131.54852294921875,['p'],0.5591919422149658,a,182.0
modular,184,v,img/target_5.png,2,7,0.05000000074505806,1.0,132.19833374023438,['v'],0.5966830253601074,a,183.0
modular,185,e,img/target_3.png,2,5,0.05000000074505806,1.0,132.8817596435547,['e'],0.6338651180267334,a,184.0
modular,186,b,img/target_6.png,2,8,0.05000000074505806,1.0,133.6153564453125,['b'],0.5714871883392334,a,185.0
modular,187,p,img/target_10.png,2,9,0.05000000074505806,1.0,134.28182983398438,['p'],0.5218110084533691,a,186.0
modular,188,w,img/target_2.png,2,0,0.05000000074505806,1.0,134.89854431152344,['w'],0.6640439033508301,a,187.0
modular,189,u,img/target_7.png,2,1,0.05000000074505806,1.0,135.64881896972656,['u'],0.8099310398101807,a,188.0
modular,190,q,img/target_1.png,2,2,0.05000000074505806,1.0,136.5478515625,['q'],0.5428891181945801,a,189.0
modular,191,w,img/target_2.png,2,0,0.05000000074505806,1.0,137.1988525390625,['w'],0.6850020885467529,a,190.0
modular,192,q,img/target_1.png,2,2,0.05000000074505806,1.0,137.98541259765625,['q'],0.5220739841461182,a,191.0
modular,193,w,img/target_2.png,2,0,0.05000000074505806,1.0,138.59884643554688,['w'],0.31675219535827637,a,192.0
modular,194,u,img/target_7.png,2,1,0.05000000074505806,1.0,139.014892578125,['u'],0.596337080001831,a,193.0
modular,195,r,img/target_4.png,2,3,0.05000000074505806,0.0,139.69882202148438,['r'],1.176537036895752,a,194.0
modular,196,u,img/target_7.png,2,1,0.05000000074505806,1.0,140.94839477539062,['u'],0.654033899307251,a,195.0
modular,197,r,img/target_4.png,2,3,0.05000000074505806,1.0,141.69947814941406,['r'],0.5754399299621582,a,196.0
modular,198,o,img/target_9.png,2,4,0.05000000074505806,0.0,142.3657684326172,['o'],0.9411799907684326,a,197.0
modular,199,u,img/target_7.png,2,1,0.05000000074505806,1.0,143.38165283203125,['u'],0.5644810199737549,a,198.0
modular,200,r,img/target_4.png,2,3,0.05000000074505806,1.0,144.0327911376953,['r'],0.5534510612487793,a,199.0
modular,201,o,img/target_9.png,2,4,0.05000000074505806,1.0,144.68252563476562,['o'],0.6404800415039062,a,200.0
modular,202,e,img/target_3.png,2,5,0.05000000074505806,0.0,145.41616821289062,['e'],1.3297581672668457,a,201.0
modular,203,v,img/target_5.png,2,7,0.05000000074505806,1.0,146.81619262695312,['v'],0.6189849376678467,a,202.0
modular,204,e,img/target_3.png,2,5,0.05000000074505806,1.0,147.53184509277344,['e'],0.6230068206787109,a,203.0
modular,205,v,img/target_5.png,2,7,0.05000000074505806,1.0,148.24917602539062,['v'],0.5207879543304443,a,204.0
modular,206,b,img/target_6.png,2,8,0.05000000074505806,1.0,148.86634826660156,['b'],0.6634199619293213,a,205.0
modular,207,p,img/target_10.png,2,9,0.05000000074505806,1.0,149.6151885986328,['p'],0.5864911079406738,a,206.0
modular,208,i,img/target_8.png,2,6,0.05000000074505806,0.0,150.298583984375,['i'],1.2710340023040771,a,207.0
modular,209,p,img/target_10.png,2,9,0.05000000074505806,1.0,151.64889526367188,['p'],0.505687952041626,a,208.0
modular,210,b,img/target_6.png,2,8,0.05000000074505806,1.0,152.24974060058594,['b'],0.559844970703125,a,209.0
modular,211,v,img/target_5.png,2,7,0.05000000074505806,1.0,152.90000915527344,['v'],0.5498881340026855,a,210.0
modular,212,p,img/target_10.png,2,9,0.05000000074505806,1.0,153.5500030517578,['p'],0.5235159397125244,a,211.0
modular,213,v,img/target_5.png,2,7,0.05000000074505806,1.0,154.16574096679688,['v'],0.46822309494018555,a,212.0
modular,214,i,img/target_8.png,2,6,0.05000000074505806,1.0,154.73318481445312,['i'],0.5171430110931396,a,213.0
modular,215,v,img/target_5.png,2,7,0.05000000074505806,1.0,155.34959411621094,['v'],0.5239670276641846,a,214.0
modular,216,p,img/target_10.png,2,9,0.05000000074505806,1.0,155.96702575683594,['p'],0.5303149223327637,a,215.0
modular,217,i,img/target_8.png,2,6,0.05000000074505806,1.0,156.58351135253906,['i'],0.5778889656066895,a,216.0
modular,218,v,img/target_5.png,2,7,0.05000000074505806,1.0,157.25282287597656,['v'],0.49259018898010254,a,217.0
modular,219,i,img/target_8.png,2,6,0.05000000074505806,1.0,157.83468627929688,['i'],0.5746829509735107,a,218.0
modular,220,p,img/target_10.png,2,9,0.05000000074505806,1.0,158.500732421875,['p'],0.41335487365722656,a,219.0
modular,221,v,img/target_5.png,2,7,0.05000000074505806,1.0,158.99954223632812,['v'],0.40238499641418457,a,220.0
modular,222,p,img/target_10.png,2,9,0.05000000074505806,1.0,159.49937438964844,['p'],0.43068504333496094,a,221.0
modular,223,i,img/target_8.png,2,6,0.05000000074505806,1.0,160.03379821777344,['i'],0.4553070068359375,a,222.0
modular,224,v,img/target_5.png,2,7,0.05000000074505806,1.0,160.5836181640625,['v'],0.3775160312652588,a,223.0
modular,225,i,img/target_8.png,2,6,0.05000000074505806,1.0,161.05050659179688,['i'],0.48731303215026855,a,224.0
modular,226,e,img/target_3.png,2,5,0.05000000074505806,1.0,161.6327667236328,['e'],0.7841849327087402,a,225.0
modular,227,i,img/target_8.png,2,6,0.05000000074505806,1.0,162.516357421875,['i'],0.5894911289215088,a,226.0
modular,228,p,img/target_10.png,2,9,0.05000000074505806,1.0,163.20022583007812,['p'],0.5365951061248779,a,227.0
modular,229,w,img/target_2.png,2,0,0.05000000074505806,0.0,163.83380126953125,['w'],1.054884910583496,a,228.0
modular,230,p,img/target_10.png,2,9,0.05000000074505806,1.0,164.96644592285156,['p'],0.5946269035339355,a,229.0
modular,231,w,img/target_2.png,2,0,0.05000000074505806,1.0,165.65037536621094,['w'],0.51039719581604,a,230.0
modular,232,r,img/target_4.png,2,3,0.05000000074505806,1.0,166.25015258789062,['r'],0.6705238819122314,a,231.0
modular,233,o,img/target_9.png,2,4,0.05000000074505806,0.0,167.01663208007812,['o'],1.145097017288208,a,232.0
modular,234,u,img/target_7.png,2,1,0.05000000074505806,1.0,168.2334747314453,['u'],1.0479528903961182,a,233.0
modular,235,r,img/target_4.png,2,3,0.05000000074505806,1.0,169.3834228515625,['r'],0.9220840930938721,a,234.0
modular,236,u,img/target_7.png,2,1,0.05000000074505806,1.0,170.40115356445312,['u'],0.4874000549316406,a,235.0
modular,237,q,img/target_1.png,2,2,0.05000000074505806,1.0,170.98634338378906,['q'],0.518139123916626,a,236.0
modular,238,o,img/target_9.png,2,4,0.05000000074505806,0.0,171.600341796875,['o'],0.8561010360717773,a,237.0
modular,239,u,img/target_7.png,2,1,0.05000000074505806,1.0,172.53375244140625,['u'],0.77056884765625,a,238.0
modular,240,q,img/target_1.png,2,2,0.05000000074505806,1.0,173.40113830566406,['q'],0.5273299217224121,a,239.0
modular,241,u,img/target_7.png,2,1,0.05000000074505806,1.0,174.01800537109375,['u'],0.5902619361877441,a,240.0
modular,242,o,img/target_9.png,2,4,0.05000000074505806,1.0,174.70240783691406,['o'],0.7375991344451904,a,241.0
modular,243,r,img/target_4.png,2,3,0.05000000074505806,1.0,175.5347442626953,['r'],0.6182830333709717,a,242.0
modular,244,o,img/target_9.png,2,4,0.05000000074505806,1.0,176.2514190673828,['o'],0.5734748840332031,a,243.0
modular,245,e,img/target_3.png,2,5,0.05000000074505806,0.0,176.91847229003906,['e'],1.2102279663085938,a,244.0
modular,246,i,img/target_8.png,2,6,0.05000000074505806,1.0,178.204345703125,['i'],0.6926569938659668,a,245.0
modular,247,e,img/target_3.png,2,5,0.05000000074505806,1.0,178.98837280273438,['e'],0.7084817886352539,a,246.0
modular,248,i,img/target_8.png,2,6,0.05000000074505806,1.0,179.78822326660156,['i'],0.35650181770324707,a,247.0
modular,249,e,img/target_3.png,2,5,0.05000000074505806,1.0,180.23489379882812,['e'],0.37284207344055176,a,248.0
modular,250,i,img/target_8.png,2,6,0.05000000074505806,1.0,180.7008819580078,['i'],0.3793768882751465,a,249.0
modular,251,b,img/target_6.png,2,8,0.05000000074505806,1.0,202.1571502685547,['b'],0.6334099769592285,a,250.0
modular,252,v,img/target_5.png,2,7,0.05000000074505806,1.0,202.88648986816406,['v'],0.4240238666534424,a,251.0
modular,253,b,img/target_6.png,2,8,0.05000000074505806,1.0,203.40296936035156,['b'],0.38849806785583496,a,252.0
modular,254,i,img/target_8.png,2,6,0.05000000074505806,0.0,203.88658142089844,['i'],1.2890050411224365,a,253.0
modular,255,v,img/target_5.png,2,7,0.05000000074505806,1.0,205.25311279296875,['v'],0.609050989151001,a,254.0
modular,256,i,img/target_8.png,2,6,0.05000000074505806,1.0,205.95358276367188,['i'],0.6296939849853516,a,255.0
modular,257,v,img/target_5.png,2,7,0.05000000074505806,1.0,206.6869659423828,['v'],0.34348511695861816,a,256.0
modular,258,i,img/target_8.png,2,6,0.05000000074505806,1.0,207.12002563476562,['i'],0.3422219753265381,a,257.0
modular,259,p,img/target_10.png,2,9,0.05000000074505806,1.0,207.55703735351562,['p'],0.44187307357788086,a,258.0
modular,260,v,img/target_5.png,2,7,0.05000000074505806,1.0,208.0858154296875,['v'],0.4567899703979492,a,259.0
modular,261,b,img/target_6.png,2,8,0.05000000074505806,1.0,208.6370391845703,['b'],0.5216591358184814,a,260.0
modular,262,e,img/target_3.png,2,5,0.05000000074505806,1.0,209.25390625,['e'],0.608180046081543,a,261.0
modular,263,o,img/target_9.png,2,4,0.05000000074505806,1.0,209.9538116455078,['o'],0.5562338829040527,a,262.0
modular,264,q,img/target_1.png,2,2,0.05000000074505806,1.0,210.60377502441406,['q'],0.47415900230407715,a,263.0
modular,265,u,img/target_7.png,2,1,0.05000000074505806,1.0,211.1705322265625,['u'],0.6753990650177002,a,264.0
modular,266,o,img/target_9.png,2,4,0.05000000074505806,0.0,211.93736267089844,['o'],0.8696558475494385,a,265.0
modular,267,e,img/target_3.png,2,5,0.05000000074505806,1.0,212.8870391845703,['e'],0.7357919216156006,a,266.0
modular,268,o,img/target_9.png,2,4,0.05000000074505806,1.0,213.72018432617188,['o'],0.5576980113983154,a,267.0
modular,269,u,img/target_7.png,2,1,0.05000000074505806,1.0,214.3706817626953,['u'],0.5628929138183594,a,268.0
modular,270,q,img/target_1.png,2,2,0.05000000074505806,1.0,215.02427673339844,['q'],0.5337390899658203,a,269.0
modular,271,u,img/target_7.png,2,1,0.05000000074505806,1.0,215.65402221679688,['u'],0.6006269454956055,a,270.0
modular,272,q,img/target_1.png,2,2,0.05000000074505806,1.0,216.35443115234375,['q'],0.4759490489959717,a,271.0
modular,273,r,img/target_4.png,2,3,0.05000000074505806,1.0,216.9208984375,['r'],0.5005979537963867,a,272.0
modular,274,q,img/target_1.png,2,2,0.05000000074505806,1.0,217.5206298828125,['q'],0.4216878414154053,a,273.0
modular,275,o,img/target_9.png,2,4,0.05000000074505806,1.0,218.0373077392578,['o'],0.5770020484924316,a,274.0
modular,276,q,img/target_1.png,2,2,0.05000000074505806,1.0,218.70465087890625,['q'],0.4448721408843994,a,275.0
modular,277,w,img/target_2.png,2,0,0.05000000074505806,1.0,219.23753356933594,['w'],0.7208409309387207,a,276.0
modular,278,r,img/target_4.png,2,3,0.05000000074505806,1.0,220.0544891357422,['r'],0.4790000915527344,a,277.0
modular,279,u,img/target_7.png,2,1,0.05000000074505806,1.0,220.6204833984375,['u'],0.48883605003356934,a,278.0
modular,280,o,img/target_9.png,2,4,0.05000000074505806,0.0,221.2042236328125,['o'],0.7697820663452148,a,279.0
modular,281,e,img/target_3.png,2,5,0.05000000074505806,1.0,222.0538787841797,['e'],0.6881630420684814,a,280.0
modular,282,v,img/target_5.png,2,7,0.05000000074505806,1.0,222.8371124267578,['v'],0.6011228561401367,a,281.0
modular,283,p,img/target_10.png,2,9,0.05000000074505806,1.0,223.5378875732422,['p'],0.5631580352783203,a,282.0
modular,284,w,img/target_2.png,2,0,0.05000000074505806,1.0,224.18829345703125,['w'],0.666003942489624,a,283.0
modular,285,r,img/target_4.png,2,3,0.05000000074505806,1.0,224.9542999267578,['r'],0.547307014465332,a,284.0
modular,286,q,img/target_1.png,2,2,0.05000000074505806,1.0,225.58778381347656,['q'],0.49053502082824707,a,285.0
modular,287,r,img/target_4.png,2,3,0.05000000074505806,1.0,226.1714630126953,['r'],0.3467841148376465,a,286.0
modular,288,w,img/target_2.png,2,0,0.05000000074505806,0.0,226.6217041015625,['w'],0.6714699268341064,a,287.0
modular,289,u,img/target_7.png,2,1,0.05000000074505806,1.0,227.37063598632812,['u'],0.5701808929443359,a,288.0
modular,290,o,img/target_9.png,2,4,0.05000000074505806,1.0,228.03822326660156,['o'],0.6307511329650879,a,289.0
modular,291,u,img/target_7.png,2,1,0.05000000074505806,1.0,228.75503540039062,['u'],0.4982938766479492,a,290.0
modular,292,w,img/target_2.png,2,0,0.05000000074505806,1.0,229.35482788085938,['w'],0.5864899158477783,a,291.0
modular,293,u,img/target_7.png,2,1,0.05000000074505806,1.0,230.03836059570312,['u'],0.551490068435669,a,292.0
modular,294,r,img/target_4.png,2,3,0.05000000074505806,1.0,230.6885528564453,['r'],0.5801920890808105,a,293.0
modular,295,q,img/target_1.png,2,2,0.05000000074505806,1.0,231.354736328125,['q'],0.45044708251953125,a,294.0
modular,296,o,img/target_9.png,2,4,0.05000000074505806,1.0,231.90928649902344,['o'],0.6154921054840088,a,295.0
modular,297,r,img/target_4.png,2,3,0.05000000074505806,1.0,232.62132263183594,['r'],0.4721369743347168,a,296.0
modular,298,q,img/target_1.png,2,2,0.05000000074505806,1.0,233.1887969970703,['q'],0.5521798133850098,a,297.0
modular,299,r,img/target_4.png,2,3,0.05000000074505806,1.0,233.83897399902344,['r'],0.5666439533233643,a,298.0
modular,300,o,img/target_9.png,2,4,0.05000000074505806,1.0,234.5047607421875,['o'],0.539726972579956,a,299.0
modular,301,r,img/target_4.png,2,3,0.05000000074505806,1.0,235.1387176513672,['r'],0.45870399475097656,a,300.0
modular,302,q,img/target_1.png,2,2,0.05000000074505806,1.0,235.68896484375,['q'],0.33238887786865234,a,301.0
modular,303,w,img/target_2.png,2,0,0.05000000074505806,1.0,236.12213134765625,['w'],0.5395100116729736,a,302.0
modular,304,u,img/target_7.png,2,1,0.05000000074505806,1.0,236.7552032470703,['u'],0.4339330196380615,a,303.0
modular,305,w,img/target_2.png,2,0,0.05000000074505806,1.0,237.2889404296875,['w'],0.5400919914245605,a,304.0
modular,306,r,img/target_4.png,2,3,0.05000000074505806,1.0,237.92237854003906,['r'],0.5069210529327393,a,305.0
modular,307,u,img/target_7.png,2,1,0.05000000074505806,1.0,238.52183532714844,['u'],0.458528995513916,a,306.0
modular,308,q,img/target_1.png,2,2,0.05000000074505806,1.0,239.0725860595703,['q'],0.4601151943206787,a,307.0
modular,309,u,img/target_7.png,2,1,0.05000000074505806,1.0,239.62200927734375,['u'],0.43099498748779297,a,308.0
modular,310,r,img/target_4.png,2,3,0.05000000074505806,1.0,240.1382598876953,['r'],0.5618798732757568,a,309.0
modular,311,u,img/target_7.png,2,1,0.05000000074505806,1.0,240.7881317138672,['u'],0.4810030460357666,a,310.0
modular,312,o,img/target_9.png,2,4,0.05000000074505806,1.0,241.3726806640625,['o'],0.4792909622192383,a,311.0
modular,313,e,img/target_3.png,2,5,0.05000000074505806,1.0,241.9387664794922,['e'],0.8259720802307129,a,312.0
modular,314,b,img/target_6.png,2,8,0.05000000074505806,1.0,242.85516357421875,['b'],0.7416160106658936,a,313.0
modular,315,e,img/target_3.png,2,5,0.05000000074505806,1.0,243.6894073486328,['e'],0.6519010066986084,a,314.0
modular,316,i,img/target_8.png,2,6,0.05000000074505806,0.0,244.43995666503906,['i'],0.9078178405761719,a,315.0
modular,317,p,img/target_10.png,2,9,0.05000000074505806,1.0,245.42198181152344,['p'],0.7425861358642578,a,316.0
modular,318,b,img/target_6.png,2,8,0.05000000074505806,1.0,246.2561492919922,['b'],0.6765649318695068,a,317.0
modular,319,e,img/target_3.png,2,5,0.05000000074505806,0.0,247.0226287841797,['e'],1.1410040855407715,a,318.0
modular,320,o,img/target_9.png,2,4,0.05000000074505806,1.0,248.24005126953125,['o'],0.6594991683959961,a,319.0
modular,321,u,img/target_7.png,2,1,0.05000000074505806,1.0,248.9894561767578,['u'],0.5739881992340088,a,320.0
modular,322,w,img/target_2.png,2,0,0.05000000074505806,1.0,249.6551055908203,['w'],0.7083950042724609,a,321.0
modular,323,p,img/target_10.png,2,9,0.05000000074505806,1.0,250.45651245117188,['p'],0.5549349784851074,a,322.0
modular,324,v,img/target_5.png,2,7,0.05000000074505806,1.0,251.1063995361328,['v'],0.6409180164337158,a,323.0
modular,325,i,img/target_8.png,2,6,0.05000000074505806,1.0,251.83956909179688,['i'],0.6206140518188477,a,324.0
modular,326,p,img/target_10.png,2,9,0.05000000074505806,1.0,252.55581665039062,['p'],0.6157419681549072,a,325.0
modular,327,v,img/target_5.png,2,7,0.05000000074505806,1.0,253.25582885742188,['v'],0.6119859218597412,a,326.0
modular,328,i,img/target_8.png,2,6,0.05000000074505806,1.0,253.9568328857422,['i'],0.5111539363861084,a,327.0
modular,329,v,img/target_5.png,2,7,0.05000000074505806,1.0,254.55661010742188,['v'],0.4715390205383301,a,328.0
modular,330,p,img/target_10.png,2,9,0.05000000074505806,1.0,255.12254333496094,['p'],0.4497189521789551,a,329.0
modular,331,i,img/target_8.png,2,6,0.05000000074505806,1.0,255.67344665527344,['i'],0.44178199768066406,a,330.0
modular,332,e,img/target_3.png,2,5,0.05000000074505806,1.0,256.2064514160156,['e'],0.6379058361053467,a,331.0
modular,333,b,img/target_6.png,2,8,0.05000000074505806,1.0,256.9404602050781,['b'],0.574458122253418,a,332.0
modular,334,i,img/target_8.png,2,6,0.05000000074505806,1.0,257.6069641113281,['i'],0.45305323600769043,a,333.0
modular,335,p,img/target_10.png,2,9,0.05000000074505806,1.0,258.1561279296875,['p'],0.44676995277404785,a,334.0
modular,336,v,img/target_5.png,2,7,0.05000000074505806,1.0,258.6902160644531,['v'],0.5537450313568115,a,335.0
modular,337,e,img/target_3.png,2,5,0.05000000074505806,1.0,259.3405456542969,['e'],0.5984139442443848,a,336.0
modular,338,o,img/target_9.png,2,4,0.05000000074505806,1.0,260.023681640625,['o'],0.4917929172515869,a,337.0
modular,339,q,img/target_1.png,2,2,0.05000000074505806,1.0,260.60638427734375,['q'],0.5563778877258301,a,338.0
modular,340,o,img/target_9.png,2,4,0.05000000074505806,0.0,261.25665283203125,['o'],1.1870429515838623,a,339.0
modular,341,u,img/target_7.png,2,1,0.05000000074505806,1.0,262.5237121582031,['u'],0.9911198616027832,a,340.0
modular,342,r,img/target_4.png,2,3,0.05000000074505806,1.0,263.6072998046875,['r'],0.8199210166931152,a,341.0
modular,343,u,img/target_7.png,2,1,0.05000000074505806,1.0,264.52392578125,['u'],0.7908971309661865,a,342.0
modular,344,o,img/target_9.png,2,4,0.05000000074505806,1.0,265.4070129394531,['o'],0.5560708045959473,a,343.0
modular,345,u,img/target_7.png,2,1,0.05000000074505806,1.0,266.0578308105469,['u'],0.5845789909362793,a,344.0
modular,346,w,img/target_2.png,2,0,0.05000000074505806,0.0,266.7430114746094,['w'],1.2592458724975586,a,345.0
modular,347,r,img/target_4.png,2,3,0.05000000074505806,1.0,268.07489013671875,['r'],0.5841720104217529,a,346.0
modular,348,q,img/target_1.png,2,2,0.05000000074505806,1.0,268.7581481933594,['q'],0.47646403312683105,a,347.0
modular,349,r,img/target_4.png,2,3,0.05000000074505806,1.0,269.324462890625,['r'],0.5097448825836182,a,348.0
modular,350,u,img/target_7.png,2,1,0.05000000074505806,1.0,269.9242858886719,['u'],0.5107290744781494,a,349.0
modular,351,q,img/target_1.png,2,2,0.05000000074505806,1.0,270.52447509765625,['q'],0.5178658962249756,a,350.0
modular,352,u,img/target_7.png,2,1,0.05000000074505806,1.0,271.1402893066406,['u'],0.4150400161743164,a,351.0
modular,353,r,img/target_4.png,2,3,0.05000000074505806,1.0,271.6570739746094,['r'],0.521010160446167,a,352.0
modular,354,w,img/target_2.png,2,0,0.05000000074505806,1.0,272.2734069824219,['w'],0.5205810070037842,a,353.0
modular,355,r,img/target_4.png,2,3,0.05000000074505806,0.0,272.8913879394531,['r'],0.8307271003723145,a,354.0
modular,356,w,img/target_2.png,2,0,0.05000000074505806,1.0,273.7924499511719,['w'],0.7215120792388916,a,355.0
modular,357,r,img/target_4.png,2,3,0.05000000074505806,1.0,274.60821533203125,['r'],0.3787829875946045,a,356.0
modular,358,u,img/target_7.png,2,1,0.05000000074505806,1.0,275.0737609863281,['u'],0.4483969211578369,a,357.0
modular,359,r,img/target_4.png,2,3,0.05000000074505806,1.0,275.6080627441406,['r'],0.5138568878173828,a,358.0
modular,360,o,img/target_9.png,2,4,0.05000000074505806,1.0,276.2079162597656,['o'],0.5712459087371826,a,359.0
modular,361,e,img/target_3.png,2,5,0.05000000074505806,0.0,276.87506103515625,['e'],0.9757199287414551,a,360.0
modular,362,b,img/target_6.png,2,8,0.05000000074505806,1.0,277.9249572753906,['b'],0.7573599815368652,a,361.0
modular,363,e,img/target_3.png,2,5,0.05000000074505806,1.0,278.77520751953125,['e'],1.107267141342163,a,362.0
modular,364,i,img/target_8.png,2,6,0.05000000074505806,1.0,279.9739990234375,['i'],0.6445419788360596,a,363.0
modular,365,p,img/target_10.png,2,9,0.05000000074505806,1.0,280.7081298828125,['p'],0.542168140411377,a,364.0
modular,366,b,img/target_6.png,2,8,0.05000000074505806,1.0,281.34161376953125,['b'],0.6197562217712402,a,365.0
modular,367,v,img/target_5.png,2,7,0.05000000074505806,1.0,282.05877685546875,['v'],0.44785380363464355,a,366.0
modular,368,b,img/target_6.png,2,8,0.05000000074505806,1.0,282.6085205078125,['b'],0.5450761318206787,a,367.0
modular,369,v,img/target_5.png,2,7,0.05000000074505806,1.0,283.24127197265625,['v'],0.4972500801086426,a,368.0
modular,370,e,img/target_3.png,2,5,0.05000000074505806,1.0,283.84197998046875,['e'],0.6314690113067627,a,369.0
modular,371,b,img/target_6.png,2,8,0.05000000074505806,1.0,284.55792236328125,['b'],0.588346004486084,a,370.0
modular,372,v,img/target_5.png,2,7,0.05000000074505806,1.0,285.24127197265625,['v'],0.5606670379638672,a,371.0
modular,373,i,img/target_8.png,2,6,0.05000000074505806,1.0,285.8915100097656,['i'],0.6543388366699219,a,372.0
modular,374,e,img/target_3.png,2,5,0.05000000074505806,1.0,286.642578125,['e'],0.6146619319915771,a,373.0
modular,375,i,img/target_8.png,2,6,0.05000000074505806,1.0,287.3425598144531,['i'],0.7706141471862793,a,374.0
modular,376,e,img/target_3.png,2,5,0.05000000074505806,1.0,288.2091064453125,['e'],1.0489089488983154,a,375.0
modular,377,o,img/target_9.png,2,4,0.05000000074505806,0.0,289.3594665527344,['o'],0.7455511093139648,a,376.0
modular,378,e,img/target_3.png,2,5,0.05000000074505806,1.0,290.1756286621094,['e'],0.7133359909057617,a,377.0
modular,379,o,img/target_9.png,2,4,0.05000000074505806,1.0,290.975341796875,['o'],0.5536580085754395,a,378.0
modular,380,e,img/target_3.png,2,5,0.05000000074505806,1.0,291.6260681152344,['e'],0.3746058940887451,a,379.0
modular,381,v,img/target_5.png,2,7,0.05000000074505806,1.0,292.0927734375,['v'],0.5562639236450195,a,380.0
modular,382,i,img/target_8.png,2,6,0.05000000074505806,1.0,292.7418518066406,['i'],0.5710229873657227,a,381.0
modular,383,v,img/target_5.png,2,7,0.05000000074505806,1.0,293.4093017578125,['v'],0.4798769950866699,a,382.0
modular,384,p,img/target_10.png,2,9,0.05000000074505806,1.0,293.9753112792969,['p'],0.5534660816192627,a,383.0
modular,385,i,img/target_8.png,2,6,0.05000000074505806,1.0,294.6260681152344,['i'],0.6148128509521484,a,384.0
modular,386,e,img/target_3.png,2,5,0.05000000074505806,1.0,295.32928466796875,['e'],0.6561570167541504,a,385.0
modular,387,i,img/target_8.png,2,6,0.05000000074505806,1.0,296.0760803222656,['i'],0.5245020389556885,a,386.0
modular,388,v,img/target_5.png,2,7,0.05000000074505806,1.0,296.6926574707031,['v'],0.5078771114349365,a,387.0
modular,389,b,img/target_6.png,2,8,0.05000000074505806,1.0,297.292724609375,['b'],0.6677291393280029,a,388.0
modular,390,v,img/target_5.png,2,7,0.05000000074505806,1.0,298.0597229003906,['v'],0.5007691383361816,a,389.0
modular,391,p,img/target_10.png,2,9,0.05000000074505806,1.0,298.661865234375,['p'],0.5794980525970459,a,390.0
modular,392,w,img/target_2.png,2,0,0.05000000074505806,1.0,299.3433532714844,['w'],0.8017330169677734,a,391.0
modular,393,r,img/target_4.png,2,3,0.05000000074505806,1.0,300.24261474609375,['r'],0.60577392578125,a,392.0
modular,394,w,img/target_2.png,2,0,0.05000000074505806,1.0,300.94329833984375,['w'],0.5848639011383057,a,393.0
modular,395,r,img/target_4.png,2,3,0.05000000074505806,1.0,301.6255798339844,['r'],0.44760799407958984,a,394.0
modular,396,o,img/target_9.png,2,4,0.05000000074505806,1.0,302.1764831542969,['o'],0.6087069511413574,a,395.0
modular,397,e,img/target_3.png,2,5,0.05000000074505806,1.0,302.87677001953125,['e'],1.2114670276641846,a,396.0
modular,398,b,img/target_6.png,2,8,0.05000000074505806,1.0,304.1761169433594,['b'],0.5203120708465576,a,397.0
modular,399,v,img/target_5.png,2,7,0.05000000074505806,1.0,304.79351806640625,['v'],0.42257213592529297,a,398.0
modular,400,b,img/target_6.png,2,8,0.05000000074505806,1.0,305.3094482421875,['b'],0.6024050712585449,a,399.0
modular,401,v,img/target_5.png,2,7,0.05000000074505806,1.0,306.010498046875,['v'],0.3818681240081787,a,400.0
modular,402,e,img/target_3.png,2,5,0.05000000074505806,1.0,306.4937438964844,['e'],0.5229120254516602,a,401.0
modular,403,o,img/target_9.png,2,4,0.05000000074505806,1.0,307.1103210449219,['o'],0.5055630207061768,a,402.0
modular,404,q,img/target_1.png,2,2,0.05000000074505806,1.0,307.7104797363281,['q'],0.6262760162353516,a,403.0
modular,405,r,img/target_4.png,2,3,0.05000000074505806,1.0,308.4271545410156,['r'],0.5488500595092773,a,404.0
modular,406,w,img/target_2.png,2,0,0.05000000074505806,1.0,309.0596008300781,['w'],0.6041710376739502,a,405.0
modular,407,u,img/target_7.png,2,1,0.05000000074505806,0.0,309.76104736328125,['u'],0.9518640041351318,a,406.0
modular,408,r,img/target_4.png,2,3,0.05000000074505806,1.0,310.79644775390625,['r'],0.5794999599456787,a,407.0
modular,409,u,img/target_7.png,2,1,0.05000000074505806,1.0,311.4763488769531,['u'],0.7483739852905273,a,408.0
modular,410,o,img/target_9.png,2,4,0.05000000074505806,1.0,312.3274841308594,['o'],0.5680789947509766,a,409.0
modular,411,r,img/target_4.png,2,3,0.05000000074505806,1.0,312.9932556152344,['r'],0.5182890892028809,a,410.0
modular,412,q,img/target_1.png,2,2,0.05000000074505806,1.0,313.6108093261719,['q'],0.6208081245422363,a,411.0
modular,413,o,img/target_9.png,2,4,0.05000000074505806,1.0,314.3275451660156,['o'],0.6078557968139648,a,412.0
modular,414,e,img/target_3.png,2,5,0.05000000074505806,1.0,315.0265197753906,['e'],0.7740790843963623,a,413.0
modular,415,v,img/target_5.png,2,7,0.05000000074505806,1.0,315.8941955566406,['v'],0.5942480564117432,a,414.0
modular,416,e,img/target_3.png,2,5,0.05000000074505806,1.0,316.5773620605469,['e'],0.5980818271636963,a,415.0
modular,417,b,img/target_6.png,2,8,0.05000000074505806,1.0,317.2615966796875,['b'],0.40963292121887207,a,416.0
modular,418,e,img/target_3.png,2,5,0.05000000074505806,1.0,317.7627868652344,['e'],0.4524879455566406,a,417.0
modular,419,v,img/target_5.png,2,7,0.05000000074505806,1.0,318.3109130859375,['v'],0.4332621097564697,a,418.0
modular,420,b,img/target_6.png,2,8,0.05000000074505806,1.0,318.843505859375,['b'],0.4439530372619629,a,419.0
modular,421,v,img/target_5.png,2,7,0.05000000074505806,0.0,319.37762451171875,['v'],0.7901442050933838,a,420.0
modular,422,e,img/target_3.png,2,5,0.05000000074505806,1.0,320.2435607910156,['e'],0.6283349990844727,a,421.0
modular,423,b,img/target_6.png,2,8,0.05000000074505806,1.0,320.961181640625,['b'],0.9985640048980713,a,422.0
modular,424,e,img/target_3.png,2,5,0.05000000074505806,1.0,322.0439147949219,['e'],0.5230851173400879,a,423.0
modular,425,i,img/target_8.png,2,6,0.05000000074505806,1.0,322.6614990234375,['i'],0.6655681133270264,a,424.0
modular,426,v,img/target_5.png,2,7,0.05000000074505806,1.0,323.4106750488281,['v'],0.4452791213989258,a,425.0
modular,427,i,img/target_8.png,2,6,0.05000000074505806,1.0,323.94464111328125,['i'],0.3912680149078369,a,426.0
modular,428,b,img/target_6.png,2,8,0.05000000074505806,1.0,324.42822265625,['b'],0.5957431793212891,a,427.0
modular,429,v,img/target_5.png,2,7,0.05000000074505806,1.0,325.1106872558594,['v'],0.43297696113586426,a,428.0
modular,430,i,img/target_8.png,2,6,0.05000000074505806,1.0,325.6438903808594,['i'],0.3717010021209717,a,429.0
modular,431,v,img/target_5.png,2,7,0.05000000074505806,1.0,326.110595703125,['v'],0.4401280879974365,a,430.0
modular,432,i,img/target_8.png,2,6,0.05000000074505806,1.0,326.6448974609375,['i'],0.36301279067993164,a,431.0
modular,433,b,img/target_6.png,2,8,0.05000000074505806,1.0,327.1116638183594,['b'],0.45577406883239746,a,432.0
modular,434,e,img/target_3.png,2,5,0.05000000074505806,1.0,327.66412353515625,['e'],0.4789891242980957,a,433.0
modular,435,b,img/target_6.png,2,8,0.05000000074505806,1.0,328.2451477050781,['b'],0.4183509349822998,a,434.0
modular,436,e,img/target_3.png,2,5,0.05000000074505806,1.0,328.7618103027344,['e'],0.4287140369415283,a,435.0
modular,437,v,img/target_5.png,2,7,0.05000000074505806,1.0,329.2787170410156,['v'],0.45686888694763184,a,436.0
modular,438,e,img/target_3.png,2,5,0.05000000074505806,1.0,329.8274841308594,['e'],0.5628619194030762,a,437.0
modular,439,o,img/target_9.png,2,4,0.05000000074505806,0.0,330.478271484375,['o'],0.8961739540100098,a,438.0
modular,440,r,img/target_4.png,2,3,0.05000000074505806,1.0,331.44482421875,['r'],0.7376201152801514,a,439.0
modular,441,q,img/target_1.png,2,2,0.05000000074505806,1.0,332.2777099609375,['q'],0.5447781085968018,a,440.0
modular,442,w,img/target_2.png,2,0,0.05000000074505806,1.0,332.91192626953125,['w'],0.5748960971832275,a,441.0
modular,443,q,img/target_1.png,2,2,0.05000000074505806,1.0,333.5784912109375,['q'],0.6127641201019287,a,442.0
modular,444,w,img/target_2.png,2,0,0.05000000074505806,1.0,334.2788391113281,['w'],0.40747714042663574,a,443.0
modular,445,p,img/target_10.png,2,9,0.05000000074505806,1.0,334.7808532714844,['p'],0.5774068832397461,a,444.0
modular,446,b,img/target_6.png,2,8,0.05000000074505806,1.0,335.4451599121094,['b'],0.5859990119934082,a,445.0
modular,447,p,img/target_10.png,2,9,0.05000000074505806,1.0,336.1281433105469,['p'],0.6700718402862549,a,446.0
modular,448,i,img/target_8.png,2,6,0.05000000074505806,1.0,336.8957824707031,['i'],0.5590429306030273,a,447.0
modular,449,v,img/target_5.png,2,7,0.05000000074505806,1.0,337.5452880859375,['v'],0.621269941329956,a,448.0
modular,450,b,img/target_6.png,2,8,0.05000000074505806,1.0,338.26226806640625,['b'],0.5367908477783203,a,449.0
modular,451,i,img/target_8.png,2,6,0.05000000074505806,1.0,338.8961486816406,['i'],0.5176730155944824,a,450.0
modular,452,v,img/target_5.png,2,7,0.05000000074505806,1.0,339.5139465332031,['v'],0.4920330047607422,a,451.0
modular,453,p,img/target_10.png,2,9,0.05000000074505806,1.0,340.095947265625,['p'],0.4618349075317383,a,452.0
modular,454,i,img/target_8.png,2,6,0.05000000074505806,1.0,340.645751953125,['i'],0.488170862197876,a,453.0
modular,455,b,img/target_6.png,2,8,0.05000000074505806,1.0,341.22918701171875,['b'],0.5685160160064697,a,454.0
modular,456,p,img/target_10.png,2,9,0.05000000074505806,1.0,341.89599609375,['p'],0.4623448848724365,a,455.0
modular,457,w,img/target_2.png,2,0,0.05000000074505806,1.0,342.44580078125,['w'],0.8170080184936523,a,456.0
modular,458,p,img/target_10.png,2,9,0.05000000074505806,1.0,343.3626708984375,['p'],0.5869410037994385,a,457.0
modular,459,i,img/target_8.png,2,6,0.05000000074505806,0.0,344.0497741699219,['i'],1.700437068939209,a,458.0
modular,460,v,img/target_5.png,2,7,0.05000000074505806,1.0,345.8295593261719,['v'],0.5526189804077148,a,459.0
modular,461,p,img/target_10.png,2,9,0.05000000074505806,1.0,346.4798278808594,['p'],0.5748550891876221,a,460.0
modular,462,b,img/target_6.png,2,8,0.05000000074505806,1.0,347.1459655761719,['b'],0.5404860973358154,a,461.0
modular,463,e,img/target_3.png,2,5,0.05000000074505806,1.0,347.7795715332031,['e'],0.6258480548858643,a,462.0
modular,464,i,img/target_8.png,2,6,0.05000000074505806,1.0,348.4955139160156,['i'],0.5897660255432129,a,463.0
modular,465,p,img/target_10.png,2,9,0.05000000074505806,1.0,349.17974853515625,['p'],0.37039804458618164,a,464.0
modular,466,i,img/target_8.png,2,6,0.05000000074505806,1.0,349.6456298828125,['i'],0.5847029685974121,a,465.0
modular,467,p,img/target_10.png,2,9,0.05000000074505806,1.0,350.329345703125,['p'],0.3967709541320801,a,466.0
modular,468,i,img/target_8.png,2,6,0.05000000074505806,1.0,350.83013916015625,['i'],0.3110640048980713,a,467.0
modular,469,v,img/target_5.png,2,7,0.05000000074505806,1.0,351.23016357421875,['v'],0.399014949798584,a,468.0
modular,470,i,img/target_8.png,2,6,0.05000000074505806,1.0,351.7300109863281,['i'],0.49955105781555176,a,469.0
modular,471,e,img/target_3.png,2,5,0.05000000074505806,1.0,352.3299865722656,['e'],0.6917271614074707,a,470.0
modular,472,b,img/target_6.png,2,8,0.05000000074505806,1.0,353.11334228515625,['b'],0.524832010269165,a,471.0
modular,473,i,img/target_8.png,2,6,0.05000000074505806,1.0,353.7299499511719,['i'],0.3879058361053467,a,472.0
modular,474,e,img/target_3.png,2,5,0.05000000074505806,1.0,354.21343994140625,['e'],0.6315319538116455,a,473.0
modular,475,v,img/target_5.png,2,7,0.05000000074505806,1.0,354.9298095703125,['v'],0.48393797874450684,a,474.0
modular,476,p,img/target_10.png,2,9,0.05000000074505806,1.0,355.512451171875,['p'],0.4611849784851074,a,475.0
modular,477,v,img/target_5.png,2,7,0.05000000074505806,1.0,356.0624694824219,['v'],0.5434989929199219,a,476.0
modular,478,b,img/target_6.png,2,8,0.05000000074505806,1.0,356.6959228515625,['b'],0.5657470226287842,a,477.0
modular,479,v,img/target_5.png,2,7,0.05000000074505806,1.0,357.3471374511719,['v'],0.4975118637084961,a,478.0
modular,480,b,img/target_6.png,2,8,0.05000000074505806,1.0,357.9298095703125,['b'],0.498913049697876,a,479.0
modular,481,v,img/target_5.png,2,7,0.05000000074505806,1.0,358.51373291015625,['v'],0.3470630645751953,a,480.0
modular,482,e,img/target_3.png,2,5,0.05000000074505806,1.0,358.9461364746094,['e'],0.6194250583648682,a,481.0
modular,483,o,img/target_9.png,2,4,0.05000000074505806,1.0,359.6640625,['o'],0.565392017364502,a,482.0
modular,484,u,img/target_7.png,2,1,0.05000000074505806,1.0,360.3316650390625,['u'],0.7368249893188477,a,483.0
modular,485,w,img/target_2.png,2,0,0.05000000074505806,1.0,361.1641540527344,['w'],0.6171989440917969,a,484.0
modular,486,q,img/target_1.png,2,2,0.05000000074505806,1.0,361.8797302246094,['q'],0.5167388916015625,a,485.0
modular,487,w,img/target_2.png,2,0,0.05000000074505806,0.0,362.50091552734375,['w'],0.9995379447937012,a,486.0
modular,488,q,img/target_1.png,2,2,0.05000000074505806,1.0,363.5804443359375,['q'],0.5368208885192871,a,487.0
modular,489,o,img/target_9.png,2,4,0.05000000074505806,1.0,364.21429443359375,['o'],0.9509167671203613,a,488.0
modular,490,q,img/target_1.png,2,2,0.05000000074505806,1.0,365.2640075683594,['q'],0.5495750904083252,a,489.0
modular,491,u,img/target_7.png,2,1,0.05000000074505806,0.0,365.9132080078125,['u'],0.85105299949646,a,490.0
modular,492,r,img/target_4.png,2,3,0.05000000074505806,1.0,366.84722900390625,['r'],0.5569679737091064,a,491.0
modular,493,u,img/target_7.png,2,1,0.05000000074505806,0.0,367.4979553222656,['u'],0.787257194519043,a,492.0
modular,494,r,img/target_4.png,2,3,0.05000000074505806,1.0,368.3637390136719,['r'],0.44136595726013184,a,493.0
modular,495,u,img/target_7.png,2,1,0.05000000074505806,1.0,368.8978271484375,['u'],0.37902212142944336,a,494.0
modular,496,o,img/target_9.png,2,4,0.05000000074505806,1.0,369.3641052246094,['o'],0.4880809783935547,a,495.0
modular,497,e,img/target_3.png,2,5,0.05000000074505806,1.0,369.94683837890625,['e'],0.6979479789733887,a,496.0
modular,498,i,img/target_8.png,2,6,0.05000000074505806,1.0,370.7469787597656,['i'],0.5699520111083984,a,497.0
modular,499,p,img/target_10.png,2,9,0.05000000074505806,1.0,371.4145812988281,['p'],0.5893599987030029,a,498.0
modular,500,w,img/target_2.png,2,0,0.05000000074505806,1.0,372.09783935546875,['w'],0.6499559879302979,a,499.0
modular,501,p,img/target_10.png,2,9,0.05000000074505806,1.0,439.7310791015625,['p'],0.7244091033935547,a,500.0
modular,502,b,img/target_6.png,2,8,0.05000000074505806,1.0,440.5543518066406,['b'],0.4931221008300781,a,501.0
modular,503,i,img/target_8.png,2,6,0.05000000074505806,0.0,441.1359558105469,['i'],0.6716570854187012,a,502.0
modular,504,v,img/target_5.png,2,7,0.05000000074505806,1.0,441.8849792480469,['v'],0.48350000381469727,a,503.0
modular,505,b,img/target_6.png,2,8,0.05000000074505806,1.0,442.46942138671875,['b'],0.41786789894104004,a,504.0
modular,506,v,img/target_5.png,2,7,0.05000000074505806,1.0,442.98541259765625,['v'],0.374798059463501,a,505.0
modular,507,b,img/target_6.png,2,8,0.05000000074505806,1.0,443.4524841308594,['b'],0.37983083724975586,a,506.0
modular,508,v,img/target_5.png,2,7,0.05000000074505806,1.0,443.92266845703125,['v'],0.33269500732421875,a,507.0
modular,509,p,img/target_10.png,2,9,0.05000000074505806,1.0,444.3529968261719,['p'],0.36702895164489746,a,508.0
modular,510,i,img/target_8.png,2,6,0.05000000074505806,1.0,444.8191833496094,['i'],0.36464691162109375,a,509.0
modular,511,p,img/target_10.png,2,9,0.05000000074505806,1.0,445.26922607421875,['p'],0.3778989315032959,a,510.0
modular,512,w,img/target_2.png,2,0,0.05000000074505806,1.0,445.7354736328125,['w'],0.5516350269317627,a,511.0
modular,513,q,img/target_1.png,2,2,0.05000000074505806,1.0,446.38525390625,['q'],0.42189598083496094,a,512.0
modular,514,u,img/target_7.png,2,1,0.05000000074505806,1.0,446.9022521972656,['u'],0.4020578861236572,a,513.0
modular,515,r,img/target_4.png,2,3,0.05000000074505806,1.0,447.4062805175781,['r'],0.4174799919128418,a,514.0
modular,516,o,img/target_9.png,2,4,0.05000000074505806,0.0,447.91986083984375,['o'],0.7281591892242432,a,515.0
modular,517,e,img/target_3.png,2,5,0.05000000074505806,1.0,448.72021484375,['e'],0.6868438720703125,a,516.0
modular,518,i,img/target_8.png,2,6,0.05000000074505806,0.0,449.5023498535156,['i'],0.833704948425293,a,517.0
modular,519,v,img/target_5.png,2,7,0.05000000074505806,1.0,450.4190979003906,['v'],0.48368096351623535,a,518.0
modular,520,b,img/target_6.png,2,8,0.05000000074505806,1.0,451.003173828125,['b'],0.37239813804626465,a,519.0
modular,521,p,img/target_10.png,2,9,0.05000000074505806,1.0,451.4698486328125,['p'],0.3849341869354248,a,520.0
modular,522,i,img/target_8.png,2,6,0.05000000074505806,1.0,451.95355224609375,['i'],0.42930006980895996,a,521.0
modular,523,b,img/target_6.png,2,8,0.05000000074505806,1.0,452.4691162109375,['b'],0.4575920104980469,a,522.0
modular,524,i,img/target_8.png,2,6,0.05000000074505806,1.0,453.020263671875,['i'],0.34751200675964355,a,523.0
modular,525,p,img/target_10.png,2,9,0.05000000074505806,1.0,453.47015380859375,['p'],0.3533649444580078,a,524.0
modular,526,v,img/target_5.png,2,7,0.05000000074505806,1.0,453.92254638671875,['v'],0.5493619441986084,a,525.0
modular,527,i,img/target_8.png,2,6,0.05000000074505806,1.0,454.5694274902344,['i'],0.3491630554199219,a,526.0
modular,528,p,img/target_10.png,2,9,0.05000000074505806,1.0,455.0033264160156,['p'],0.34013986587524414,a,527.0
modular,529,w,img/target_2.png,2,0,0.05000000074505806,0.0,455.4365234375,['w'],0.8189570903778076,a,528.0
modular,530,r,img/target_4.png,2,3,0.05000000074505806,1.0,456.3360595703125,['r'],0.4953939914703369,a,529.0
modular,531,o,img/target_9.png,2,4,0.05000000074505806,1.0,456.9203186035156,['o'],0.5342319011688232,a,530.0
modular,532,r,img/target_4.png,2,3,0.05000000074505806,1.0,457.5538330078125,['r'],0.6855340003967285,a,531.0
modular,533,w,img/target_2.png,2,0,0.05000000074505806,1.0,458.3370056152344,['w'],0.4543778896331787,a,532.0
modular,534,u,img/target_7.png,2,1,0.05000000074505806,1.0,458.8877258300781,['u'],0.5835189819335938,a,533.0
modular,535,o,img/target_9.png,2,4,0.05000000074505806,1.0,459.5710754394531,['o'],0.4991128444671631,a,534.0
modular,536,q,img/target_1.png,2,2,0.05000000074505806,1.0,460.1706848144531,['q'],0.4836080074310303,a,535.0
modular,537,u,img/target_7.png,2,1,0.05000000074505806,0.0,460.7541198730469,['u'],0.5494210720062256,a,536.0
modular,538,w,img/target_2.png,2,0,0.05000000074505806,1.0,461.38702392578125,['w'],0.6914839744567871,a,537.0
modular,539,p,img/target_10.png,2,9,0.05000000074505806,1.0,462.1740417480469,['p'],0.5042908191680908,a,538.0
modular,540,w,img/target_2.png,2,0,0.05000000074505806,1.0,462.77020263671875,['w'],0.500715970993042,a,539.0
modular,541,q,img/target_1.png,2,2,0.05000000074505806,1.0,463.37060546875,['q'],0.4445779323577881,a,540.0
modular,542,u,img/target_7.png,2,1,0.05000000074505806,1.0,463.90374755859375,['u'],0.5744218826293945,a,541.0
modular,543,w,img/target_2.png,2,0,0.05000000074505806,1.0,464.57122802734375,['w'],0.6027429103851318,a,542.0
modular,544,u,img/target_7.png,2,1,0.05000000074505806,1.0,465.2710266113281,['u'],0.5918638706207275,a,543.0
modular,545,r,img/target_4.png,2,3,0.05000000074505806,1.0,465.9537353515625,['r'],0.5562570095062256,a,544.0
modular,546,q,img/target_1.png,2,2,0.05000000074505806,1.0,466.6038513183594,['q'],0.4505178928375244,a,545.0
modular,547,r,img/target_4.png,2,3,0.05000000074505806,0.0,467.154052734375,['r'],0.7242069244384766,a,546.0
modular,548,w,img/target_2.png,2,0,0.05000000074505806,1.0,467.95361328125,['w'],0.5082550048828125,a,547.0
modular,549,q,img/target_1.png,2,2,0.05000000074505806,1.0,468.5547180175781,['q'],0.4518909454345703,a,548.0
modular,550,w,img/target_2.png,2,0,0.05000000074505806,1.0,469.1042175292969,['w'],0.46959996223449707,a,549.0
modular,551,q,img/target_1.png,2,2,0.05000000074505806,1.0,469.6708068847656,['q'],0.6469709873199463,a,550.0
modular,552,o,img/target_9.png,2,4,0.05000000074505806,1.0,470.40411376953125,['o'],0.6424188613891602,a,551.0
modular,553,r,img/target_4.png,2,3,0.05000000074505806,1.0,471.1374816894531,['r'],0.5570831298828125,a,552.0
modular,554,u,img/target_7.png,2,1,0.05000000074505806,1.0,471.7882080078125,['u'],0.46563100814819336,a,553.0
modular,555,r,img/target_4.png,2,3,0.05000000074505806,1.0,472.33795166015625,['r'],0.5564169883728027,a,554.0
modular,556,w,img/target_2.png,2,0,0.05000000074505806,1.0,472.9879150390625,['w'],0.5615799427032471,a,555.0
modular,557,p,img/target_10.png,2,9,0.05000000074505806,1.0,473.63818359375,['p'],0.5354998111724854,a,556.0
modular,558,b,img/target_6.png,2,8,0.05000000074505806,1.0,474.2713928222656,['b'],0.645941972732544,a,557.0
modular,559,i,img/target_8.png,2,6,0.05000000074505806,1.0,475.005126953125,['i'],0.5532591342926025,a,558.0
modular,560,b,img/target_6.png,2,8,0.05000000074505806,1.0,475.6551513671875,['b'],0.49437880516052246,a,559.0
modular,561,v,img/target_5.png,2,7,0.05000000074505806,1.0,476.23992919921875,['v'],0.4853861331939697,a,560.0
modular,562,e,img/target_3.png,2,5,0.05000000074505806,1.0,476.821533203125,['e'],0.6237311363220215,a,561.0
modular,563,i,img/target_8.png,2,6,0.05000000074505806,1.0,477.53826904296875,['i'],0.5071280002593994,a,562.0
modular,564,e,img/target_3.png,2,5,0.05000000074505806,1.0,478.13751220703125,['e'],0.45973801612854004,a,563.0
modular,565,o,img/target_9.png,2,4,0.05000000074505806,1.0,478.68878173828125,['o'],0.7573521137237549,a,564.0
modular,566,q,img/target_1.png,2,2,0.05000000074505806,1.0,479.5377502441406,['q'],0.5482938289642334,a,565.0
modular,567,w,img/target_2.png,2,0,0.05000000074505806,1.0,480.188720703125,['w'],0.5844190120697021,a,566.0
modular,568,r,img/target_4.png,2,3,0.05000000074505806,1.0,480.8713684082031,['r'],0.4783461093902588,a,567.0
modular,569,u,img/target_7.png,2,1,0.05000000074505806,1.0,481.4386901855469,['u'],0.5590789318084717,a,568.0
modular,570,o,img/target_9.png,2,4,0.05000000074505806,1.0,482.08843994140625,['o'],0.3644719123840332,a,569.0
modular,571,u,img/target_7.png,2,1,0.05000000074505806,1.0,482.5376892089844,['u'],0.4432108402252197,a,570.0
modular,572,q,img/target_1.png,2,2,0.05000000074505806,1.0,483.0718994140625,['q'],0.524968147277832,a,571.0
modular,573,o,img/target_9.png,2,4,0.05000000074505806,1.0,483.68878173828125,['o'],0.6052968502044678,a,572.0
modular,574,u,img/target_7.png,2,1,0.05000000074505806,1.0,484.39111328125,['u'],0.43841099739074707,a,573.0
modular,575,o,img/target_9.png,2,4,0.05000000074505806,1.0,484.9221496582031,['o'],0.3957071304321289,a,574.0
modular,576,q,img/target_1.png,2,2,0.05000000074505806,1.0,485.4054260253906,['q'],0.511146068572998,a,575.0
modular,577,u,img/target_7.png,2,1,0.05000000074505806,1.0,486.00482177734375,['u'],0.5118188858032227,a,576.0
modular,578,q,img/target_1.png,2,2,0.05000000074505806,1.0,486.60577392578125,['q'],0.46291399002075195,a,577.0
modular,579,u,img/target_7.png,2,1,0.05000000074505806,1.0,487.1547546386719,['u'],0.35382986068725586,a,578.0
modular,580,q,img/target_1.png,2,2,0.05000000074505806,1.0,487.60601806640625,['q'],0.5751450061798096,a,579.0
modular,581,w,img/target_2.png,2,0,0.05000000074505806,1.0,488.27239990234375,['w'],0.6285181045532227,a,580.0
modular,582,q,img/target_1.png,2,2,0.05000000074505806,1.0,488.98858642578125,['q'],0.5919821262359619,a,581.0
modular,583,u,img/target_7.png,2,1,0.05000000074505806,1.0,489.67291259765625,['u'],0.44343996047973633,a,582.0
modular,584,q,img/target_1.png,2,2,0.05000000074505806,1.0,490.20953369140625,['q'],0.4267690181732178,a,583.0
modular,585,w,img/target_2.png,2,0,0.05000000074505806,1.0,490.722412109375,['w'],0.5385570526123047,a,584.0
modular,586,r,img/target_4.png,2,3,0.05000000074505806,1.0,491.35614013671875,['r'],0.6642990112304688,a,585.0
modular,587,q,img/target_1.png,2,2,0.05000000074505806,1.0,492.105224609375,['q'],0.5631301403045654,a,586.0
modular,588,r,img/target_4.png,2,3,0.05000000074505806,1.0,492.7565612792969,['r'],0.47978997230529785,a,587.0
modular,589,u,img/target_7.png,2,1,0.05000000074505806,1.0,493.3221740722656,['u'],0.3701779842376709,a,588.0
modular,590,q,img/target_1.png,2,2,0.05000000074505806,1.0,493.7898254394531,['q'],0.5905649662017822,a,589.0
modular,591,r,img/target_4.png,2,3,0.05000000074505806,1.0,494.4731750488281,['r'],0.6916828155517578,a,590.0
modular,592,o,img/target_9.png,2,4,0.05000000074505806,1.0,495.25518798828125,['o'],0.5567739009857178,a,591.0
modular,593,u,img/target_7.png,2,1,0.05000000074505806,1.0,495.9062194824219,['u'],0.4428269863128662,a,592.0
modular,594,o,img/target_9.png,2,4,0.05000000074505806,1.0,496.43951416015625,['o'],0.4453389644622803,a,593.0
modular,595,u,img/target_7.png,2,1,0.05000000074505806,1.0,496.9728088378906,['u'],0.3757350444793701,a,594.0
modular,596,q,img/target_1.png,2,2,0.05000000074505806,1.0,497.43988037109375,['q'],0.49315404891967773,a,595.0
modular,597,r,img/target_4.png,2,3,0.05000000074505806,1.0,498.0223083496094,['r'],0.5103940963745117,a,596.0
modular,598,u,img/target_7.png,2,1,0.05000000074505806,1.0,498.62432861328125,['u'],0.4355759620666504,a,597.0
modular,599,o,img/target_9.png,2,4,0.05000000074505806,1.0,499.15673828125,['o'],0.3278679847717285,a,598.0
modular,600,e,img/target_3.png,2,5,0.05000000074505806,1.0,499.5729675292969,['e'],0.8231220245361328,a,599.0
modular,601,v,img/target_5.png,2,7,0.05000000074505806,1.0,500.48974609375,['v'],0.5552561283111572,a,600.0
modular,602,b,img/target_6.png,2,8,0.05000000074505806,1.0,501.1392822265625,['b'],0.5363481044769287,a,601.0
modular,603,p,img/target_10.png,2,9,0.05000000074505806,1.0,501.773681640625,['p'],0.5418858528137207,a,602.0
modular,604,i,img/target_8.png,2,6,0.05000000074505806,1.0,502.4071044921875,['i'],0.6055800914764404,a,603.0
modular,605,p,img/target_10.png,2,9,0.05000000074505806,1.0,503.10693359375,['p'],0.488800048828125,a,604.0
modular,606,b,img/target_6.png,2,8,0.05000000074505806,1.0,503.6902160644531,['b'],0.47371792793273926,a,605.0
modular,607,i,img/target_8.png,2,6,0.05000000074505806,1.0,504.25665283203125,['i'],0.4989440441131592,a,606.0
modular,608,e,img/target_3.png,2,5,0.05000000074505806,1.0,504.8401794433594,['e'],0.4843330383300781,a,607.0
modular,609,v,img/target_5.png,2,7,0.05000000074505806,1.0,505.42340087890625,['v'],0.5082058906555176,a,608.0
modular,610,b,img/target_6.png,2,8,0.05000000074505806,1.0,506.02362060546875,['b'],0.43579602241516113,a,609.0
modular,611,v,img/target_5.png,2,7,0.05000000074505806,1.0,506.5571594238281,['v'],0.4631340503692627,a,610.0
modular,612,p,img/target_10.png,2,9,0.05000000074505806,1.0,507.1231689453125,['p'],0.5773241519927979,a,611.0
modular,613,w,img/target_2.png,2,0,0.05000000074505806,1.0,507.79034423828125,['w'],0.6941220760345459,a,612.0
modular,614,u,img/target_7.png,2,1,0.05000000074505806,1.0,508.57403564453125,['u'],0.5333361625671387,a,613.0
modular,615,o,img/target_9.png,2,4,0.05000000074505806,1.0,509.20733642578125,['o'],0.4770348072052002,a,614.0
modular,616,r,img/target_4.png,2,3,0.05000000074505806,1.0,509.7738037109375,['r'],0.5500469207763672,a,615.0
modular,617,w,img/target_2.png,2,0,0.05000000074505806,1.0,510.4235534667969,['w'],0.4916069507598877,a,616.0
modular,618,p,img/target_10.png,2,9,0.05000000074505806,1.0,511.0063781738281,['p'],0.4367060661315918,a,617.0
modular,619,v,img/target_5.png,2,7,0.05000000074505806,1.0,511.540771484375,['v'],0.6075119972229004,a,618.0
modular,620,b,img/target_6.png,2,8,0.05000000074505806,1.0,512.2396850585938,['b'],0.3965339660644531,a,619.0
modular,621,v,img/target_5.png,2,7,0.05000000074505806,1.0,512.7243041992188,['v'],0.5194399356842041,a,620.0
modular,622,e,img/target_3.png,2,5,0.05000000074505806,1.0,513.3411865234375,['e'],0.7498340606689453,a,621.0
modular,623,i,img/target_8.png,2,6,0.05000000074505806,1.0,514.1903686523438,['i'],0.6284668445587158,a,622.0
modular,624,v,img/target_5.png,2,7,0.05000000074505806,1.0,514.90771484375,['v'],0.3911430835723877,a,623.0
modular,625,i,img/target_8.png,2,6,0.05000000074505806,1.0,515.3898315429688,['i'],0.4208669662475586,a,624.0
modular,626,v,img/target_5.png,2,7,0.05000000074505806,1.0,515.9066162109375,['v'],0.3843379020690918,a,625.0
modular,627,p,img/target_10.png,2,9,0.05000000074505806,1.0,516.3901977539062,['p'],0.5487780570983887,a,626.0
modular,628,i,img/target_8.png,2,6,0.05000000074505806,0.0,517.0241088867188,['i'],0.9866108894348145,a,627.0
modular,629,e,img/target_3.png,2,5,0.05000000074505806,1.0,518.0917358398438,['e'],0.679069995880127,a,628.0
modular,630,i,img/target_8.png,2,6,0.05000000074505806,1.0,518.8580932617188,['i'],0.737379789352417,a,629.0
modular,631,p,img/target_10.png,2,9,0.05000000074505806,1.0,519.6903076171875,['p'],0.4246861934661865,a,630.0
modular,632,w,img/target_2.png,2,0,0.05000000074505806,1.0,520.2076416015625,['w'],0.6518449783325195,a,631.0
modular,633,u,img/target_7.png,2,1,0.05000000074505806,1.0,520.9607543945312,['u'],0.5057671070098877,a,632.0
modular,634,q,img/target_1.png,2,2,0.05000000074505806,1.0,521.5584106445312,['q'],0.5009708404541016,a,633.0
modular,635,o,img/target_9.png,2,4,0.05000000074505806,0.0,522.158447265625,['o'],0.95682692527771,a,634.0
modular,636,r,img/target_4.png,2,3,0.05000000074505806,1.0,523.1915893554688,['r'],0.6830921173095703,a,635.0
modular,637,u,img/target_7.png,2,1,0.05000000074505806,1.0,523.9746704101562,['u'],0.45180678367614746,a,636.0
modular,638,o,img/target_9.png,2,4,0.05000000074505806,1.0,524.5245361328125,['o'],0.6937549114227295,a,637.0
modular,639,e,img/target_3.png,2,5,0.05000000074505806,0.0,525.3084106445312,['e'],0.9417228698730469,a,638.0
modular,640,i,img/target_8.png,2,6,0.05000000074505806,1.0,526.3253784179688,['i'],0.7176990509033203,a,639.0
modular,641,e,img/target_3.png,2,5,0.05000000074505806,1.0,527.141845703125,['e'],0.4761641025543213,a,640.0
modular,642,v,img/target_5.png,2,7,0.05000000074505806,1.0,527.7084350585938,['v'],0.4783761501312256,a,641.0
modular,643,b,img/target_6.png,2,8,0.05000000074505806,1.0,528.2752685546875,['b'],0.3919210433959961,a,642.0
modular,644,i,img/target_8.png,2,6,0.05000000074505806,1.0,528.758544921875,['i'],0.45950984954833984,a,643.0
modular,645,p,img/target_10.png,2,9,0.05000000074505806,1.0,529.3079833984375,['p'],0.49489307403564453,a,644.0
modular,646,b,img/target_6.png,2,8,0.05000000074505806,1.0,529.8922729492188,['b'],0.5266859531402588,a,645.0
modular,647,i,img/target_8.png,2,6,0.05000000074505806,1.0,530.50830078125,['i'],0.5184731483459473,a,646.0
modular,648,b,img/target_6.png,2,8,0.05000000074505806,1.0,531.1243286132812,['b'],0.4614229202270508,a,647.0
modular,649,p,img/target_10.png,2,9,0.05000000074505806,1.0,531.67529296875,['p'],0.4317500591278076,a,648.0
modular,650,b,img/target_6.png,2,8,0.05000000074505806,1.0,532.2078247070312,['b'],0.43393707275390625,a,649.0
modular,651,v,img/target_5.png,2,7,0.05000000074505806,1.0,532.7422485351562,['v'],0.4846668243408203,a,650.0
modular,652,e,img/target_3.png,2,5,0.05000000074505806,1.0,533.3257446289062,['e'],0.5639050006866455,a,651.0
modular,653,v,img/target_5.png,2,7,0.05000000074505806,1.0,533.974609375,['v'],0.4831850528717041,a,652.0
modular,654,p,img/target_10.png,2,9,0.05000000074505806,0.0,534.55908203125,['p'],0.95489501953125,a,653.0
modular,655,b,img/target_6.png,2,8,0.05000000074505806,1.0,535.5914916992188,['b'],0.5460171699523926,a,654.0
modular,656,i,img/target_8.png,2,6,0.05000000074505806,1.0,536.2257080078125,['i'],0.48787403106689453,a,655.0
modular,657,b,img/target_6.png,2,8,0.05000000074505806,1.0,536.8087768554688,['b'],0.47283506393432617,a,656.0
modular,658,e,img/target_3.png,2,5,0.05000000074505806,1.0,537.3748168945312,['e'],0.7074389457702637,a,657.0
modular,659,o,img/target_9.png,2,4,0.05000000074505806,1.0,538.1754150390625,['o'],0.7380871772766113,a,658.0
modular,660,q,img/target_1.png,2,2,0.05000000074505806,1.0,539.0093383789062,['q'],0.6078941822052002,a,659.0
modular,661,r,img/target_4.png,2,3,0.05000000074505806,1.0,539.709716796875,['r'],0.5475718975067139,a,660.0
modular,662,o,img/target_9.png,2,4,0.05000000074505806,1.0,540.341796875,['o'],0.5874860286712646,a,661.0
modular,663,u,img/target_7.png,2,1,0.05000000074505806,1.0,541.025390625,['u'],0.48847413063049316,a,662.0
modular,664,o,img/target_9.png,2,4,0.05000000074505806,1.0,541.6097412109375,['o'],0.4956798553466797,a,663.0
modular,665,r,img/target_4.png,2,3,0.05000000074505806,1.0,542.1926879882812,['r'],0.6083769798278809,a,664.0
modular,666,u,img/target_7.png,2,1,0.05000000074505806,1.0,542.8930053710938,['u'],0.5413539409637451,a,665.0
modular,667,w,img/target_2.png,2,0,0.05000000074505806,1.0,543.526123046875,['w'],0.6269989013671875,a,666.0
modular,668,r,img/target_4.png,2,3,0.05000000074505806,1.0,544.2432250976562,['r'],0.5097441673278809,a,667.0
modular,669,u,img/target_7.png,2,1,0.05000000074505806,1.0,544.8465576171875,['u'],0.48256707191467285,a,668.0
modular,670,o,img/target_9.png,2,4,0.05000000074505806,1.0,545.4265747070312,['o'],0.3982810974121094,a,669.0
modular,671,q,img/target_1.png,2,2,0.05000000074505806,1.0,545.9097290039062,['q'],0.6039609909057617,a,670.0
modular,672,u,img/target_7.png,2,1,0.05000000074505806,1.0,546.60986328125,['u'],0.49498486518859863,a,671.0
modular,673,w,img/target_2.png,2,0,0.05000000074505806,1.0,547.1928100585938,['w'],0.5609540939331055,a,672.0
modular,674,r,img/target_4.png,2,3,0.05000000074505806,1.0,547.8432006835938,['r'],0.5337789058685303,a,673.0
modular,675,w,img/target_2.png,2,0,0.05000000074505806,1.0,548.4766845703125,['w'],0.4761519432067871,a,674.0
modular,676,q,img/target_1.png,2,2,0.05000000074505806,1.0,549.0433349609375,['q'],0.43776607513427734,a,675.0
modular,677,w,img/target_2.png,2,0,0.05000000074505806,1.0,549.576904296875,['w'],0.4967620372772217,a,676.0
modular,678,r,img/target_4.png,2,3,0.05000000074505806,1.0,550.1784057617188,['r'],0.40648794174194336,a,677.0
modular,679,w,img/target_2.png,2,0,0.05000000074505806,1.0,550.6757202148438,['w'],0.5489921569824219,a,678.0
modular,680,q,img/target_1.png,2,2,0.05000000074505806,1.0,551.3091430664062,['q'],0.3084430694580078,a,679.0
modular,681,u,img/target_7.png,2,1,0.05000000074505806,1.0,551.7120361328125,['u'],0.5616710186004639,a,680.0
modular,682,q,img/target_1.png,2,2,0.05000000074505806,1.0,552.3757934570312,['q'],0.473613977432251,a,681.0
modular,683,o,img/target_9.png,2,4,0.05000000074505806,1.0,552.9431762695312,['o'],0.4903981685638428,a,682.0
modular,684,e,img/target_3.png,2,5,0.05000000074505806,0.0,553.52587890625,['e'],1.5715699195861816,a,683.0
modular,685,v,img/target_5.png,2,7,0.05000000074505806,1.0,555.1762084960938,['v'],0.5931861400604248,a,684.0
modular,686,i,img/target_8.png,2,6,0.05000000074505806,1.0,555.863525390625,['i'],0.6168198585510254,a,685.0
modular,687,p,img/target_10.png,2,9,0.05000000074505806,0.0,556.5773315429688,['p'],0.7917249202728271,a,686.0
modular,688,b,img/target_6.png,2,8,0.05000000074505806,1.0,557.4442749023438,['b'],0.5650789737701416,a,687.0
modular,689,v,img/target_5.png,2,7,0.05000000074505806,1.0,558.1103515625,['v'],0.49791598320007324,a,688.0
modular,690,b,img/target_6.png,2,8,0.05000000074505806,1.0,558.693115234375,['b'],0.5480380058288574,a,689.0
modular,691,e,img/target_3.png,2,5,0.05000000074505806,1.0,559.3441772460938,['e'],0.6972429752349854,a,690.0
modular,692,b,img/target_6.png,2,8,0.05000000074505806,1.0,560.143310546875,['b'],0.577643871307373,a,691.0
modular,693,v,img/target_5.png,2,7,0.05000000074505806,1.0,560.8107299804688,['v'],0.48535680770874023,a,692.0
modular,694,e,img/target_3.png,2,5,0.05000000074505806,1.0,561.3931884765625,['e'],0.47879886627197266,a,693.0
modular,695,v,img/target_5.png,2,7,0.05000000074505806,1.0,561.9609985351562,['v'],0.5201129913330078,a,694.0
modular,696,b,img/target_6.png,2,8,0.05000000074505806,1.0,562.5774536132812,['b'],0.5995419025421143,a,695.0
modular,697,p,img/target_10.png,2,9,0.05000000074505806,1.0,563.277587890625,['p'],0.48230886459350586,a,696.0
modular,698,b,img/target_6.png,2,8,0.05000000074505806,1.0,563.843505859375,['b'],0.6050310134887695,a,697.0
modular,699,e,img/target_3.png,2,5,0.05000000074505806,1.0,564.5446166992188,['e'],0.5520811080932617,a,698.0
modular,700,o,img/target_9.png,2,4,0.05000000074505806,1.0,565.1942138671875,['o'],0.5418338775634766,a,699.0
modular,701,u,img/target_7.png,2,1,0.05000000074505806,1.0,565.8277587890625,['u'],0.4369790554046631,a,700.0
modular,702,q,img/target_1.png,2,2,0.05000000074505806,1.0,566.3612060546875,['q'],0.5345540046691895,a,701.0
modular,703,o,img/target_9.png,2,4,0.05000000074505806,0.0,566.9943237304688,['o'],0.8375260829925537,a,702.0
modular,704,u,img/target_7.png,2,1,0.05000000074505806,1.0,567.910400390625,['u'],0.7292327880859375,a,703.0
modular,705,w,img/target_2.png,2,0,0.05000000074505806,1.0,568.727783203125,['w'],0.7845931053161621,a,704.0
modular,706,r,img/target_4.png,2,3,0.05000000074505806,1.0,569.6109619140625,['r'],0.5650758743286133,a,705.0
modular,707,o,img/target_9.png,2,4,0.05000000074505806,1.0,570.2605590820312,['o'],0.5638339519500732,a,706.0
modular,708,e,img/target_3.png,2,5,0.05000000074505806,1.0,570.910400390625,['e'],0.922004222869873,a,707.0
modular,709,v,img/target_5.png,2,7,0.05000000074505806,1.0,571.92822265625,['v'],0.41610193252563477,a,708.0
modular,710,i,img/target_8.png,2,6,0.05000000074505806,1.0,572.4447631835938,['i'],0.5384061336517334,a,709.0
modular,711,e,img/target_3.png,2,5,0.05000000074505806,1.0,573.0782470703125,['e'],0.584989070892334,a,710.0
modular,712,b,img/target_6.png,2,8,0.05000000074505806,1.0,573.7618408203125,['b'],0.5175638198852539,a,711.0
modular,713,e,img/target_3.png,2,5,0.05000000074505806,1.0,574.37744140625,['e'],0.5256600379943848,a,712.0
modular,714,b,img/target_6.png,2,8,0.05000000074505806,1.0,574.9953002929688,['b'],0.4280729293823242,a,713.0
modular,715,i,img/target_8.png,2,6,0.05000000074505806,1.0,575.5120239257812,['i'],0.6798408031463623,a,714.0
modular,716,v,img/target_5.png,2,7,0.05000000074505806,1.0,576.2769775390625,['v'],0.4992389678955078,a,715.0
modular,717,p,img/target_10.png,2,9,0.05000000074505806,1.0,576.8782958984375,['p'],0.5296401977539062,a,716.0
modular,718,b,img/target_6.png,2,8,0.05000000074505806,1.0,577.4949340820312,['b'],0.4813089370727539,a,717.0
modular,719,e,img/target_3.png,2,5,0.05000000074505806,1.0,578.0803833007812,['e'],0.48781299591064453,a,718.0
modular,720,v,img/target_5.png,2,7,0.05000000074505806,1.0,578.662109375,['v'],0.488922119140625,a,719.0
modular,721,b,img/target_6.png,2,8,0.05000000074505806,1.0,579.2445068359375,['b'],0.4116079807281494,a,720.0
modular,722,p,img/target_10.png,2,9,0.05000000074505806,1.0,579.7455444335938,['p'],0.3972890377044678,a,721.0
modular,723,i,img/target_8.png,2,6,0.05000000074505806,1.0,580.2276611328125,['i'],0.4833550453186035,a,722.0
modular,724,p,img/target_10.png,2,9,0.05000000074505806,1.0,580.79443359375,['p'],0.4370739459991455,a,723.0
modular,725,w,img/target_2.png,2,0,0.05000000074505806,0.0,581.3278198242188,['w'],0.9040179252624512,a,724.0
modular,726,r,img/target_4.png,2,3,0.05000000074505806,1.0,582.3116455078125,['r'],0.46297216415405273,a,725.0
modular,727,o,img/target_9.png,2,4,0.05000000074505806,1.0,582.864990234375,['o'],0.8055269718170166,a,726.0
modular,728,e,img/target_3.png,2,5,0.05000000074505806,1.0,583.7625122070312,['e'],0.652817964553833,a,727.0
modular,729,b,img/target_6.png,2,8,0.05000000074505806,1.0,584.5125122070312,['b'],0.4068300724029541,a,728.0
modular,730,v,img/target_5.png,2,7,0.05000000074505806,1.0,585.0123901367188,['v'],0.3626711368560791,a,729.0
modular,731,e,img/target_3.png,2,5,0.05000000074505806,1.0,585.4779052734375,['e'],0.4250669479370117,a,730.0
modular,732,i,img/target_8.png,2,6,0.05000000074505806,1.0,585.995361328125,['i'],0.5390868186950684,a,731.0
modular,733,e,img/target_3.png,2,5,0.05000000074505806,1.0,586.6289672851562,['e'],0.47452807426452637,a,732.0
modular,734,v,img/target_5.png,2,7,0.05000000074505806,1.0,587.195068359375,['v'],0.4603128433227539,a,733.0
modular,735,p,img/target_10.png,2,9,0.05000000074505806,1.0,587.746337890625,['p'],0.6045169830322266,a,734.0
modular,736,v,img/target_5.png,2,7,0.05000000074505806,1.0,588.4452514648438,['v'],0.4498939514160156,a,735.0
modular,737,i,img/target_8.png,2,6,0.05000000074505806,1.0,588.9959716796875,['i'],0.49822187423706055,a,736.0
modular,738,v,img/target_5.png,2,7,0.05000000074505806,1.0,589.579345703125,['v'],0.4831509590148926,a,737.0
modular,739,e,img/target_3.png,2,5,0.05000000074505806,1.0,590.1660766601562,['e'],0.5448808670043945,a,738.0
modular,740,i,img/target_8.png,2,6,0.05000000074505806,1.0,590.8126220703125,['i'],0.6104550361633301,a,739.0
modular,741,b,img/target_6.png,2,8,0.05000000074505806,1.0,591.512451171875,['b'],0.4865860939025879,a,740.0
modular,742,i,img/target_8.png,2,6,0.05000000074505806,1.0,592.095458984375,['i'],0.45467710494995117,a,741.0
modular,743,b,img/target_6.png,2,8,0.05000000074505806,0.0,592.6460571289062,['b'],0.9209120273590088,a,742.0
modular,744,e,img/target_3.png,2,5,0.05000000074505806,0.0,593.6455078125,['e'],0.9524071216583252,a,743.0
modular,745,v,img/target_5.png,2,7,0.05000000074505806,1.0,594.6799926757812,['v'],0.5108389854431152,a,744.0
modular,746,p,img/target_10.png,2,9,0.05000000074505806,1.0,595.280029296875,['p'],0.6308858394622803,a,745.0
modular,747,v,img/target_5.png,2,7,0.05000000074505806,1.0,596.0122680664062,['v'],0.5138959884643555,a,746.0
modular,748,b,img/target_6.png,2,8,0.05000000074505806,1.0,596.6126708984375,['b'],0.5457720756530762,a,747.0
modular,749,i,img/target_8.png,2,6,0.05000000074505806,1.0,597.24560546875,['i'],0.49622607231140137,a,748.0
modular,750,b,img/target_6.png,2,8,0.05000000074505806,1.0,597.8290405273438,['b'],0.5526759624481201,a,749.0
modular,751,v,img/target_5.png,2,7,0.05000000074505806,1.0,622.7931518554688,['v'],0.5955309867858887,a,750.0
modular,752,b,img/target_6.png,2,8,0.05000000074505806,1.0,623.4817504882812,['b'],0.3552820682525635,a,751.0
modular,753,p,img/target_10.png,2,9,0.05000000074505806,0.0,623.9315795898438,['p'],1.2166550159454346,a,752.0
modular,754,b,img/target_6.png,2,8,0.05000000074505806,1.0,625.23193359375,['b'],0.5239520072937012,a,753.0
modular,755,e,img/target_3.png,2,5,0.05000000074505806,1.0,625.8492431640625,['e'],0.6116139888763428,a,754.0
modular,756,o,img/target_9.png,2,4,0.05000000074505806,0.0,626.548095703125,['o'],0.9125709533691406,a,755.0
modular,757,q,img/target_1.png,2,2,0.05000000074505806,1.0,627.5346069335938,['q'],0.46925806999206543,a,756.0
modular,758,o,img/target_9.png,2,4,0.05000000074505806,1.0,628.0993041992188,['o'],0.4565260410308838,a,757.0
modular,759,r,img/target_4.png,2,3,0.05000000074505806,1.0,628.6488037109375,['r'],0.47496485710144043,a,758.0
modular,760,w,img/target_2.png,2,0,0.05000000074505806,1.0,629.2161254882812,['w'],0.603618860244751,a,759.0
modular,761,q,img/target_1.png,2,2,0.05000000074505806,1.0,629.9155883789062,['q'],0.4409980773925781,a,760.0
modular,762,r,img/target_4.png,2,3,0.05000000074505806,1.0,630.4489135742188,['r'],0.4116480350494385,a,761.0
modular,763,w,img/target_2.png,2,0,0.05000000074505806,1.0,630.948974609375,['w'],0.5597469806671143,a,762.0
modular,764,r,img/target_4.png,2,3,0.05000000074505806,1.0,631.598388671875,['r'],0.41454195976257324,a,763.0
modular,765,o,img/target_9.png,2,4,0.05000000074505806,1.0,632.114501953125,['o'],0.4809398651123047,a,764.0
modular,766,r,img/target_4.png,2,3,0.05000000074505806,1.0,632.6824340820312,['r'],0.46628284454345703,a,765.0
modular,767,w,img/target_2.png,2,0,0.05000000074505806,1.0,633.2491455078125,['w'],0.48235106468200684,a,766.0
modular,768,q,img/target_1.png,2,2,0.05000000074505806,1.0,633.8319702148438,['q'],0.4036381244659424,a,767.0
modular,769,u,img/target_7.png,2,1,0.05000000074505806,1.0,634.3323974609375,['u'],0.4469888210296631,a,768.0
modular,770,q,img/target_1.png,2,2,0.05000000074505806,1.0,634.8658447265625,['q'],0.4746999740600586,a,769.0
modular,771,u,img/target_7.png,2,1,0.05000000074505806,0.0,635.432373046875,['u'],0.7788848876953125,a,770.0
modular,772,o,img/target_9.png,2,4,0.05000000074505806,0.0,636.2825927734375,['o'],0.7696189880371094,a,771.0
modular,773,u,img/target_7.png,2,1,0.05000000074505806,1.0,637.1319580078125,['u'],0.40728211402893066,a,772.0
modular,774,w,img/target_2.png,2,0,0.05000000074505806,1.0,637.6328125,['w'],0.5713469982147217,a,773.0
modular,775,u,img/target_7.png,2,1,0.05000000074505806,1.0,638.2996215820312,['u'],0.4555928707122803,a,774.0
modular,776,w,img/target_2.png,2,0,0.05000000074505806,1.0,638.8493041992188,['w'],0.4903409481048584,a,775.0
modular,777,q,img/target_1.png,2,2,0.05000000074505806,1.0,639.432861328125,['q'],0.4269111156463623,a,776.0
modular,778,r,img/target_4.png,2,3,0.05000000074505806,1.0,639.9495849609375,['r'],0.43749094009399414,a,777.0
modular,779,w,img/target_2.png,2,0,0.05000000074505806,1.0,640.4827880859375,['w'],0.6403710842132568,a,778.0
modular,780,q,img/target_1.png,2,2,0.05000000074505806,1.0,641.2164306640625,['q'],0.5154280662536621,a,779.0
modular,781,w,img/target_2.png,2,0,0.05000000074505806,1.0,641.8319702148438,['w'],0.28385400772094727,a,780.0
modular,782,q,img/target_1.png,2,2,0.05000000074505806,1.0,642.2164306640625,['q'],0.3157329559326172,a,781.0
modular,783,o,img/target_9.png,2,4,0.05000000074505806,1.0,642.6326904296875,['o'],0.587007999420166,a,782.0
modular,784,q,img/target_1.png,2,2,0.05000000074505806,1.0,643.3165283203125,['q'],0.5034239292144775,a,783.0
modular,785,u,img/target_7.png,2,1,0.05000000074505806,1.0,643.9196166992188,['u'],0.6444709300994873,a,784.0
modular,786,w,img/target_2.png,2,0,0.05000000074505806,1.0,644.6666259765625,['w'],0.4961819648742676,a,785.0
modular,787,r,img/target_4.png,2,3,0.05000000074505806,1.0,645.25,['r'],0.5775508880615234,a,786.0
modular,788,q,img/target_1.png,2,2,0.05000000074505806,1.0,645.9164428710938,['q'],0.47818493843078613,a,787.0
modular,789,r,img/target_4.png,2,3,0.05000000074505806,1.0,646.4833984375,['r'],0.45543408393859863,a,788.0
modular,790,o,img/target_9.png,2,4,0.05000000074505806,1.0,647.0331420898438,['o'],0.5384249687194824,a,789.0
modular,791,e,img/target_3.png,2,5,0.05000000074505806,1.0,647.6656494140625,['e'],0.689255952835083,a,790.0
modular,792,o,img/target_9.png,2,4,0.05000000074505806,1.0,648.4495849609375,['o'],0.48886895179748535,a,791.0
modular,793,r,img/target_4.png,2,3,0.05000000074505806,1.0,649.0341796875,['r'],0.5210599899291992,a,792.0
modular,794,o,img/target_9.png,2,4,0.05000000074505806,1.0,649.6491088867188,['o'],0.44928503036499023,a,793.0
modular,795,e,img/target_3.png,2,5,0.05000000074505806,0.0,650.1834716796875,['e'],0.9629678726196289,a,794.0
modular,796,i,img/target_8.png,2,6,0.05000000074505806,0.0,651.232666015625,['i'],0.817561149597168,a,795.0
modular,797,b,img/target_6.png,2,8,0.05000000074505806,1.0,652.1329345703125,['b'],1.222438097000122,a,796.0
modular,798,v,img/target_5.png,2,7,0.05000000074505806,1.0,653.45068359375,['v'],0.3846900463104248,a,797.0
modular,799,b,img/target_6.png,2,8,0.05000000074505806,0.0,653.9339599609375,['b'],0.48426198959350586,a,798.0
modular,800,i,img/target_8.png,2,6,0.05000000074505806,1.0,654.4998168945312,['i'],0.7275090217590332,a,799.0
modular,801,v,img/target_5.png,2,7,0.05000000074505806,1.0,655.3165893554688,['v'],0.4545249938964844,a,800.0
modular,802,e,img/target_3.png,2,5,0.05000000074505806,1.0,655.867431640625,['e'],0.5833151340484619,a,801.0
modular,803,i,img/target_8.png,2,6,0.05000000074505806,1.0,656.5507202148438,['i'],0.4998140335083008,a,802.0
modular,804,e,img/target_3.png,2,5,0.05000000074505806,1.0,657.150146484375,['e'],0.4997749328613281,a,803.0
modular,805,o,img/target_9.png,2,4,0.05000000074505806,1.0,657.750732421875,['o'],0.6040191650390625,a,804.0
modular,806,r,img/target_4.png,2,3,0.05000000074505806,0.0,658.4510498046875,['r'],0.8159129619598389,a,805.0
modular,807,q,img/target_1.png,2,2,0.05000000074505806,1.0,659.3499755859375,['q'],0.4518709182739258,a,806.0
modular,808,w,img/target_2.png,2,0,0.05000000074505806,1.0,659.901123046875,['w'],0.4605560302734375,a,807.0
modular,809,q,img/target_1.png,2,2,0.05000000074505806,1.0,660.4510498046875,['q'],0.5186409950256348,a,808.0
modular,810,r,img/target_4.png,2,3,0.05000000074505806,1.0,661.0675048828125,['r'],0.4861481189727783,a,809.0
modular,811,q,img/target_1.png,2,2,0.05000000074505806,1.0,661.6510620117188,['q'],0.4236741065979004,a,810.0
modular,812,r,img/target_4.png,2,3,0.05000000074505806,1.0,662.1673583984375,['r'],0.40303897857666016,a,811.0
modular,813,u,img/target_7.png,2,1,0.05000000074505806,1.0,662.6678466796875,['u'],0.47884392738342285,a,812.0
modular,814,r,img/target_4.png,2,3,0.05000000074505806,1.0,663.2340087890625,['r'],0.6087131500244141,a,813.0
modular,815,w,img/target_2.png,2,0,0.05000000074505806,1.0,663.9339599609375,['w'],0.556704044342041,a,814.0
modular,816,q,img/target_1.png,2,2,0.05000000074505806,1.0,664.58447265625,['q'],0.44992804527282715,a,815.0
modular,817,w,img/target_2.png,2,0,0.05000000074505806,1.0,665.1342163085938,['w'],0.45927906036376953,a,816.0
modular,818,r,img/target_4.png,2,3,0.05000000074505806,1.0,665.683837890625,['r'],0.4388120174407959,a,817.0
modular,819,w,img/target_2.png,2,0,0.05000000074505806,1.0,666.2174682617188,['w'],0.4730050563812256,a,818.0
modular,820,q,img/target_1.png,2,2,0.05000000074505806,1.0,666.786376953125,['q'],0.42401599884033203,a,819.0
modular,821,o,img/target_9.png,2,4,0.05000000074505806,1.0,667.3013916015625,['o'],0.6280958652496338,a,820.0
modular,822,e,img/target_3.png,2,5,0.05000000074505806,1.0,668.0172119140625,['e'],0.7842288017272949,a,821.0
modular,823,b,img/target_6.png,2,8,0.05000000074505806,1.0,668.9016723632812,['b'],0.5718159675598145,a,822.0
modular,824,p,img/target_10.png,2,9,0.05000000074505806,1.0,669.5675048828125,['p'],0.682560920715332,a,823.0
modular,825,v,img/target_5.png,2,7,0.05000000074505806,1.0,670.3516235351562,['v'],0.5547621250152588,a,824.0
modular,826,b,img/target_6.png,2,8,0.05000000074505806,1.0,671.0018920898438,['b'],0.5111701488494873,a,825.0
modular,827,v,img/target_5.png,2,7,0.05000000074505806,1.0,671.6007690429688,['v'],0.4483630657196045,a,826.0
modular,828,p,img/target_10.png,2,9,0.05000000074505806,1.0,672.1349487304688,['p'],0.5071918964385986,a,827.0
modular,829,w,img/target_2.png,2,0,0.05000000074505806,1.0,672.7349243164062,['w'],0.5940260887145996,a,828.0
modular,830,r,img/target_4.png,2,3,0.05000000074505806,1.0,673.4185791015625,['r'],0.446605920791626,a,829.0
modular,831,u,img/target_7.png,2,1,0.05000000074505806,1.0,673.9521484375,['u'],0.5218620300292969,a,830.0
modular,832,o,img/target_9.png,2,4,0.05000000074505806,1.0,674.5682983398438,['o'],0.537891149520874,a,831.0
modular,833,q,img/target_1.png,2,2,0.05000000074505806,1.0,675.2039794921875,['q'],0.549670934677124,a,832.0
modular,834,w,img/target_2.png,2,0,0.05000000074505806,1.0,675.8508911132812,['w'],0.5018129348754883,a,833.0
modular,835,p,img/target_10.png,2,9,0.05000000074505806,1.0,676.4515991210938,['p'],0.5171620845794678,a,834.0
modular,836,v,img/target_5.png,2,7,0.05000000074505806,1.0,677.0687255859375,['v'],0.5566749572753906,a,835.0
modular,837,p,img/target_10.png,2,9,0.05000000074505806,1.0,677.7188720703125,['p'],0.48195886611938477,a,836.0
modular,838,i,img/target_8.png,2,6,0.05000000074505806,1.0,678.2879028320312,['i'],0.6414599418640137,a,837.0
modular,839,b,img/target_6.png,2,8,0.05000000074505806,1.0,679.01904296875,['b'],0.5106189250946045,a,838.0
modular,840,p,img/target_10.png,2,9,0.05000000074505806,1.0,679.6185302734375,['p'],0.4142110347747803,a,839.0
modular,841,i,img/target_8.png,2,6,0.05000000074505806,1.0,680.1190185546875,['i'],0.5538890361785889,a,840.0
modular,842,e,img/target_3.png,2,5,0.05000000074505806,0.0,680.7694091796875,['e'],1.1033778190612793,a,841.0
modular,843,i,img/target_8.png,2,6,0.05000000074505806,1.0,681.951416015625,['i'],0.6100578308105469,a,842.0
modular,844,v,img/target_5.png,2,7,0.05000000074505806,1.0,682.6524658203125,['v'],0.5408689975738525,a,843.0
modular,845,b,img/target_6.png,2,8,0.05000000074505806,1.0,683.2860717773438,['b'],0.3382251262664795,a,844.0
modular,846,i,img/target_8.png,2,6,0.05000000074505806,1.0,683.7188110351562,['i'],0.5147039890289307,a,845.0
modular,847,b,img/target_6.png,2,8,0.05000000074505806,1.0,684.3187255859375,['b'],0.5864968299865723,a,846.0
modular,848,i,img/target_8.png,2,6,0.05000000074505806,0.0,685.00341796875,['i'],0.9007730484008789,a,847.0
modular,849,e,img/target_3.png,2,5,0.05000000074505806,1.0,685.9852294921875,['e'],0.6078989505767822,a,848.0
modular,850,v,img/target_5.png,2,7,0.05000000074505806,1.0,686.685546875,['v'],0.49146389961242676,a,849.0
modular,851,p,img/target_10.png,2,9,0.05000000074505806,1.0,687.2696533203125,['p'],0.4504659175872803,a,850.0
modular,852,i,img/target_8.png,2,6,0.05000000074505806,1.0,687.8195190429688,['i'],0.7253270149230957,a,851.0
modular,853,v,img/target_5.png,2,7,0.05000000074505806,1.0,688.6351928710938,['v'],0.4776790142059326,a,852.0
modular,854,b,img/target_6.png,2,8,0.05000000074505806,1.0,689.2027587890625,['b'],0.4459679126739502,a,853.0
modular,855,e,img/target_3.png,2,5,0.05000000074505806,1.0,689.73583984375,['e'],0.568148136138916,a,854.0
modular,856,o,img/target_9.png,2,4,0.05000000074505806,1.0,690.4031372070312,['o'],0.4938359260559082,a,855.0
modular,857,r,img/target_4.png,2,3,0.05000000074505806,1.0,690.98583984375,['r'],0.519312858581543,a,856.0
modular,858,q,img/target_1.png,2,2,0.05000000074505806,1.0,691.603271484375,['q'],0.5494449138641357,a,857.0
modular,859,o,img/target_9.png,2,4,0.05000000074505806,1.0,692.2526245117188,['o'],0.6043899059295654,a,858.0
modular,860,q,img/target_1.png,2,2,0.05000000074505806,1.0,692.9530639648438,['q'],0.5826640129089355,a,859.0
modular,861,w,img/target_2.png,2,0,0.05000000074505806,1.0,693.6362915039062,['w'],0.5805380344390869,a,860.0
modular,862,r,img/target_4.png,2,3,0.05000000074505806,1.0,694.320068359375,['r'],0.46388888359069824,a,861.0
modular,863,w,img/target_2.png,2,0,0.05000000074505806,1.0,694.8700561523438,['w'],0.5617589950561523,a,862.0
modular,864,q,img/target_1.png,2,2,0.05000000074505806,1.0,695.5198364257812,['q'],0.4796628952026367,a,863.0
modular,865,r,img/target_4.png,2,3,0.05000000074505806,1.0,696.0858154296875,['r'],0.5146031379699707,a,864.0
modular,866,u,img/target_7.png,2,1,0.05000000074505806,1.0,696.7040405273438,['u'],0.38441896438598633,a,865.0
modular,867,r,img/target_4.png,2,3,0.05000000074505806,1.0,697.187255859375,['r'],0.4771769046783447,a,866.0
modular,868,q,img/target_1.png,2,2,0.05000000074505806,1.0,697.7532348632812,['q'],0.43057799339294434,a,867.0
modular,869,r,img/target_4.png,2,3,0.05000000074505806,1.0,698.27001953125,['r'],0.4424750804901123,a,868.0
modular,870,o,img/target_9.png,2,4,0.05000000074505806,1.0,698.8037109375,['o'],0.5327141284942627,a,869.0
modular,871,r,img/target_4.png,2,3,0.05000000074505806,1.0,699.4368896484375,['r'],0.3793790340423584,a,870.0
modular,872,o,img/target_9.png,2,4,0.05000000074505806,0.0,699.9033203125,['o'],0.800156831741333,a,871.0
modular,873,u,img/target_7.png,2,1,0.05000000074505806,1.0,700.787353515625,['u'],0.5329229831695557,a,872.0
modular,874,o,img/target_9.png,2,4,0.05000000074505806,1.0,701.4195556640625,['o'],0.572749137878418,a,873.0
modular,875,e,img/target_3.png,2,5,0.05000000074505806,0.0,702.0867309570312,['e'],1.185225009918213,a,874.0
modular,876,i,img/target_8.png,2,6,0.05000000074505806,1.0,703.353515625,['i'],0.6306569576263428,a,875.0
modular,877,b,img/target_6.png,2,8,0.05000000074505806,1.0,704.08740234375,['b'],0.600895881652832,a,876.0
modular,878,p,img/target_10.png,2,9,0.05000000074505806,1.0,704.7904052734375,['p'],0.5765500068664551,a,877.0
modular,879,i,img/target_8.png,2,6,0.05000000074505806,1.0,705.453857421875,['i'],0.6256058216094971,a,878.0
modular,880,e,img/target_3.png,2,5,0.05000000074505806,1.0,706.1705932617188,['e'],0.6053309440612793,a,879.0
modular,881,i,img/target_8.png,2,6,0.05000000074505806,1.0,706.8696899414062,['i'],0.5296628475189209,a,880.0
modular,882,b,img/target_6.png,2,8,0.05000000074505806,1.0,707.4874267578125,['b'],0.5203731060028076,a,881.0
modular,883,e,img/target_3.png,2,5,0.05000000074505806,1.0,708.1032104492188,['e'],0.7446529865264893,a,882.0
modular,884,o,img/target_9.png,2,4,0.05000000074505806,0.0,708.9369506835938,['o'],0.6307389736175537,a,883.0
modular,885,r,img/target_4.png,2,3,0.05000000074505806,0.0,709.641845703125,['r'],0.885753870010376,a,884.0
modular,886,u,img/target_7.png,2,1,0.05000000074505806,0.0,710.603271484375,['u'],0.8993229866027832,a,885.0
modular,887,w,img/target_2.png,2,0,0.05000000074505806,1.0,711.5709838867188,['w'],0.6847498416900635,a,886.0
modular,888,u,img/target_7.png,2,1,0.05000000074505806,1.0,712.355712890625,['u'],0.3718688488006592,a,887.0
modular,889,o,img/target_9.png,2,4,0.05000000074505806,1.0,712.8245849609375,['o'],0.4461848735809326,a,888.0
modular,890,r,img/target_4.png,2,3,0.05000000074505806,0.0,713.3707885742188,['r'],0.7878777980804443,a,889.0
modular,891,w,img/target_2.png,2,0,0.05000000074505806,1.0,714.2371215820312,['w'],0.5461578369140625,a,890.0
modular,892,q,img/target_1.png,2,2,0.05000000074505806,1.0,714.8704833984375,['q'],0.4559319019317627,a,891.0
modular,893,u,img/target_7.png,2,1,0.05000000074505806,1.0,715.4210815429688,['u'],0.434218168258667,a,892.0
modular,894,w,img/target_2.png,2,0,0.05000000074505806,1.0,715.9541625976562,['w'],0.6042468547821045,a,893.0
modular,895,q,img/target_1.png,2,2,0.05000000074505806,1.0,716.6549682617188,['q'],0.4392588138580322,a,894.0
modular,896,o,img/target_9.png,2,4,0.05000000074505806,1.0,717.1876220703125,['o'],0.5707499980926514,a,895.0
modular,897,u,img/target_7.png,2,1,0.05000000074505806,1.0,717.854736328125,['u'],0.4154322147369385,a,896.0
modular,898,q,img/target_1.png,2,2,0.05000000074505806,1.0,718.3538818359375,['q'],0.4684131145477295,a,897.0
modular,899,r,img/target_4.png,2,3,0.05000000074505806,1.0,718.9215087890625,['r'],0.5566539764404297,a,898.0
modular,900,o,img/target_9.png,2,4,0.05000000074505806,1.0,719.571533203125,['o'],0.5305428504943848,a,899.0
modular,901,q,img/target_1.png,2,2,0.05000000074505806,1.0,720.1882934570312,['q'],0.5707788467407227,a,900.0
modular,902,o,img/target_9.png,2,4,0.05000000074505806,1.0,720.85498046875,['o'],0.47102904319763184,a,901.0
modular,903,q,img/target_1.png,2,2,0.05000000074505806,1.0,721.4216918945312,['q'],0.40111303329467773,a,902.0
modular,904,r,img/target_4.png,2,3,0.05000000074505806,1.0,721.921875,['r'],0.46888303756713867,a,903.0
modular,905,q,img/target_1.png,2,2,0.05000000074505806,1.0,722.4874267578125,['q'],0.45552897453308105,a,904.0
modular,906,r,img/target_4.png,2,3,0.05000000074505806,1.0,723.0382690429688,['r'],0.4240741729736328,a,905.0
modular,907,u,img/target_7.png,2,1,0.05000000074505806,1.0,723.5558471679688,['u'],0.4991629123687744,a,906.0
modular,908,o,img/target_9.png,2,4,0.05000000074505806,1.0,724.1553344726562,['o'],0.4516730308532715,a,907.0
modular,909,e,img/target_3.png,2,5,0.05000000074505806,1.0,724.7053833007812,['e'],1.0696001052856445,a,908.0
