graph,trialNum,resp,path,pID,walk,ISI_raw,correct_raw,onset_raw,resp_raw,rt_raw,typing_raw,order
modular,1,b,img/target_6.png,4,5,0.05000000074505806,1.0,0.009989023208618164,['b'],0.8812339305877686,b,0.0
modular,2,o,img/target_9.png,4,8,0.05000000074505806,1.0,1.0016140937805176,['o'],0.802825927734375,b,1.0
modular,3,e,img/target_3.png,4,7,0.05000000074505806,1.0,1.9040241241455078,['e'],0.8357479572296143,b,2.0
modular,4,v,img/target_5.png,4,6,0.05000000074505806,1.0,2.838050127029419,['v'],0.6129930019378662,b,3.0
modular,5,b,img/target_6.png,4,5,0.05000000074505806,1.0,3.547614097595215,['b'],0.4804060459136963,b,4.0
modular,6,o,img/target_9.png,4,8,0.05000000074505806,1.0,4.132535934448242,['o'],0.6711809635162354,b,5.0
modular,7,v,img/target_5.png,4,6,0.05000000074505806,1.0,4.899248123168945,['v'],0.48899102210998535,b,6.0
modular,8,e,img/target_3.png,4,7,0.05000000074505806,1.0,5.482555389404297,['e'],0.7616159915924072,b,7.0
modular,9,o,img/target_9.png,4,8,0.05000000074505806,1.0,6.347774982452393,['o'],0.5351731777191162,b,8.0
modular,10,v,img/target_5.png,4,6,0.05000000074505806,1.0,6.982422828674316,['v'],0.5017979145050049,b,9.0
modular,11,e,img/target_3.png,4,7,0.05000000074505806,1.0,7.5824971199035645,['e'],0.7167758941650391,b,10.0
modular,12,v,img/target_5.png,4,6,0.05000000074505806,1.0,8.398590087890625,['v'],0.45351099967956543,b,11.0
modular,13,b,img/target_6.png,4,5,0.05000000074505806,1.0,8.949209213256836,['b'],0.5658111572265625,b,12.0
modular,14,p,img/target_10.png,4,4,0.05000000074505806,1.0,9.6209716796875,['p'],0.45385289192199707,b,13.0
modular,15,i,img/target_8.png,4,3,0.05000000074505806,1.0,10.17108154296875,['i'],0.728550910949707,b,14.0
modular,16,r,img/target_4.png,4,1,0.05000000074505806,1.0,11.02137565612793,['r'],0.6064820289611816,b,15.0
modular,17,i,img/target_8.png,4,3,0.05000000074505806,0.0,11.732601165771484,['i'],0.7513778209686279,b,16.0
modular,18,u,img/target_7.png,4,0,0.05000000074505806,1.0,12.572309494018555,['u'],0.710564136505127,b,17.0
modular,19,q,img/target_1.png,4,2,0.05000000074505806,1.0,13.404814720153809,['q'],0.613969087600708,b,18.0
modular,20,p,img/target_10.png,4,4,0.05000000074505806,1.0,14.116150856018066,['p'],0.5984349250793457,b,19.0
modular,21,q,img/target_1.png,4,2,0.05000000074505806,1.0,14.816405296325684,['q'],0.4590339660644531,b,20.0
modular,22,u,img/target_7.png,4,0,0.05000000074505806,1.0,15.366586685180664,['u'],0.4761497974395752,b,21.0
modular,23,i,img/target_8.png,4,3,0.05000000074505806,1.0,15.932687759399414,['i'],0.5342381000518799,b,22.0
modular,24,u,img/target_7.png,4,0,0.05000000074505806,1.0,16.565876007080078,['u'],0.43770790100097656,b,23.0
modular,25,r,img/target_4.png,4,1,0.05000000074505806,1.0,17.10001564025879,['r'],0.4628109931945801,b,24.0
modular,26,q,img/target_1.png,4,2,0.05000000074505806,1.0,17.66679573059082,['q'],0.5443160533905029,b,25.0
modular,27,i,img/target_8.png,4,3,0.05000000074505806,1.0,18.31681251525879,['i'],0.44605112075805664,b,26.0
modular,28,p,img/target_10.png,4,4,0.05000000074505806,1.0,18.866506576538086,['p'],0.5284769535064697,b,27.0
modular,29,q,img/target_1.png,4,2,0.05000000074505806,1.0,19.500581741333008,['q'],0.4709510803222656,b,28.0
modular,30,i,img/target_8.png,4,3,0.05000000074505806,0.0,20.066255569458008,['i'],1.1281659603118896,b,29.0
modular,31,r,img/target_4.png,4,1,0.05000000074505806,1.0,21.266845703125,['r'],0.608910083770752,b,30.0
modular,32,q,img/target_1.png,4,2,0.05000000074505806,1.0,21.983253479003906,['q'],0.8203370571136475,b,31.0
modular,33,p,img/target_10.png,4,4,0.05000000074505806,1.0,22.900413513183594,['p'],0.4705820083618164,b,32.0
modular,34,r,img/target_4.png,4,1,0.05000000074505806,1.0,23.467082977294922,['r'],0.4957289695739746,b,33.0
modular,35,p,img/target_10.png,4,4,0.05000000074505806,1.0,24.065887451171875,['p'],0.4657559394836426,b,34.0
modular,36,r,img/target_4.png,4,1,0.05000000074505806,1.0,24.63419532775879,['r'],0.6250870227813721,b,35.0
modular,37,q,img/target_1.png,4,2,0.05000000074505806,1.0,25.367231369018555,['q'],0.45139288902282715,b,36.0
modular,38,p,img/target_10.png,4,4,0.05000000074505806,1.0,25.91623878479004,['p'],0.5750441551208496,b,37.0
modular,39,b,img/target_6.png,4,5,0.05000000074505806,1.0,26.58342933654785,['b'],0.49941396713256836,b,38.0
modular,40,o,img/target_9.png,4,8,0.05000000074505806,1.0,27.1832332611084,['o'],0.7070460319519043,b,39.0
modular,41,v,img/target_5.png,4,6,0.05000000074505806,1.0,27.984085083007812,['v'],0.4512159824371338,b,40.0
modular,42,w,img/target_2.png,4,9,0.05000000074505806,1.0,28.53902244567871,['w'],0.6324169635772705,b,41.0
modular,43,v,img/target_5.png,4,6,0.05000000074505806,1.0,29.266599655151367,['v'],0.4645400047302246,b,42.0
modular,44,b,img/target_6.png,4,5,0.05000000074505806,1.0,29.83330535888672,['b'],0.4729280471801758,b,43.0
modular,45,v,img/target_5.png,4,6,0.05000000074505806,1.0,30.40056610107422,['v'],0.4347879886627197,b,44.0
modular,46,b,img/target_6.png,4,5,0.05000000074505806,0.0,30.934368133544922,['b'],0.40470099449157715,b,45.0
modular,47,v,img/target_5.png,4,6,0.05000000074505806,1.0,31.417049407958984,['v'],0.4890139102935791,b,46.0
modular,48,e,img/target_3.png,4,7,0.05000000074505806,1.0,32.00033950805664,['e'],0.7617120742797852,b,47.0
modular,49,o,img/target_9.png,4,8,0.05000000074505806,1.0,32.85074234008789,['o'],0.4720768928527832,b,48.0
modular,50,w,img/target_2.png,4,9,0.05000000074505806,1.0,33.41832733154297,['w'],0.7444159984588623,b,49.0
modular,51,o,img/target_9.png,4,8,0.05000000074505806,1.0,34.26710891723633,['o'],0.48719215393066406,b,50.0
modular,52,w,img/target_2.png,4,9,0.05000000074505806,1.0,34.85052490234375,['w'],0.5113670825958252,b,51.0
modular,53,v,img/target_5.png,4,6,0.05000000074505806,1.0,35.467647552490234,['v'],0.47127294540405273,b,52.0
modular,54,w,img/target_2.png,4,9,0.05000000074505806,1.0,36.03499984741211,['w'],0.5277659893035889,b,53.0
modular,55,v,img/target_5.png,4,6,0.05000000074505806,1.0,36.66884231567383,['v'],0.3893129825592041,b,54.0
modular,56,e,img/target_3.png,4,7,0.05000000074505806,0.0,37.151123046875,['e'],0.8596689701080322,b,55.0
modular,57,v,img/target_5.png,4,6,0.05000000074505806,1.0,38.101341247558594,['v'],0.3974940776824951,b,56.0
modular,58,o,img/target_9.png,4,8,0.05000000074505806,1.0,38.6007194519043,['o'],0.48929619789123535,b,57.0
modular,59,e,img/target_3.png,4,7,0.05000000074505806,1.0,39.18523406982422,['e'],0.560823917388916,b,58.0
modular,60,b,img/target_6.png,4,5,0.05000000074505806,1.0,39.83452606201172,['b'],0.4074091911315918,b,59.0
modular,61,v,img/target_5.png,4,6,0.05000000074505806,1.0,40.33551788330078,['v'],0.3625619411468506,b,60.0
modular,62,w,img/target_2.png,4,9,0.05000000074505806,1.0,40.802059173583984,['w'],0.6556098461151123,b,61.0
modular,63,v,img/target_5.png,4,6,0.05000000074505806,1.0,41.55231475830078,['v'],0.3695871829986572,b,62.0
modular,64,b,img/target_6.png,4,5,0.05000000074505806,1.0,42.017765045166016,['b'],0.3678290843963623,b,63.0
modular,65,o,img/target_9.png,4,8,0.05000000074505806,1.0,42.485904693603516,['o'],0.396420955657959,b,64.0
modular,66,v,img/target_5.png,4,6,0.05000000074505806,1.0,42.98591995239258,['v'],0.39960694313049316,b,65.0
modular,67,o,img/target_9.png,4,8,0.05000000074505806,1.0,43.486122131347656,['o'],0.49260497093200684,b,66.0
modular,68,w,img/target_2.png,4,9,0.05000000074505806,1.0,44.0847053527832,['w'],0.4461638927459717,b,67.0
modular,69,v,img/target_5.png,4,6,0.05000000074505806,1.0,44.6357421875,['v'],0.4379081726074219,b,68.0
modular,70,w,img/target_2.png,4,9,0.05000000074505806,1.0,45.169090270996094,['w'],0.45737504959106445,b,69.0
modular,71,o,img/target_9.png,4,8,0.05000000074505806,1.0,45.718875885009766,['o'],0.5476169586181641,b,70.0
modular,72,w,img/target_2.png,4,9,0.05000000074505806,1.0,46.369346618652344,['w'],0.5841898918151855,b,71.0
modular,73,u,img/target_7.png,4,0,0.05000000074505806,1.0,47.052947998046875,['u'],0.4930610656738281,b,72.0
modular,74,r,img/target_4.png,4,1,0.05000000074505806,1.0,47.65304183959961,['r'],0.6454129219055176,b,73.0
modular,75,u,img/target_7.png,4,0,0.05000000074505806,1.0,48.40274429321289,['u'],0.567763090133667,b,74.0
modular,76,i,img/target_8.png,4,3,0.05000000074505806,1.0,49.068580627441406,['i'],0.501068115234375,b,75.0
modular,77,r,img/target_4.png,4,1,0.05000000074505806,1.0,49.66889190673828,['r'],0.5175588130950928,b,76.0
modular,78,q,img/target_1.png,4,2,0.05000000074505806,1.0,50.28560256958008,['q'],0.5398881435394287,b,77.0
modular,79,r,img/target_4.png,4,1,0.05000000074505806,1.0,50.919918060302734,['r'],0.48251795768737793,b,78.0
modular,80,q,img/target_1.png,4,2,0.05000000074505806,1.0,51.50334548950195,['q'],0.43515992164611816,b,79.0
modular,81,u,img/target_7.png,4,0,0.05000000074505806,1.0,52.03667449951172,['u'],0.4772469997406006,b,80.0
modular,82,q,img/target_1.png,4,2,0.05000000074505806,1.0,52.61994171142578,['q'],0.42945289611816406,b,81.0
modular,83,p,img/target_10.png,4,4,0.05000000074505806,1.0,53.15350341796875,['p'],0.7039129734039307,b,82.0
modular,84,b,img/target_6.png,4,5,0.05000000074505806,1.0,53.95296096801758,['b'],0.5847518444061279,b,83.0
modular,85,e,img/target_3.png,4,7,0.05000000074505806,1.0,54.63600158691406,['e'],0.7102949619293213,b,84.0
modular,86,v,img/target_5.png,4,6,0.05000000074505806,1.0,55.45368194580078,['v'],0.41955018043518066,b,85.0
modular,87,b,img/target_6.png,4,5,0.05000000074505806,1.0,55.97013854980469,['b'],0.4323000907897949,b,86.0
modular,88,e,img/target_3.png,4,7,0.05000000074505806,1.0,56.502559661865234,['e'],0.6505601406097412,b,87.0
modular,89,b,img/target_6.png,4,5,0.05000000074505806,1.0,57.253910064697266,['b'],0.4115290641784668,b,88.0
modular,90,e,img/target_3.png,4,7,0.05000000074505806,0.0,57.77042007446289,['e'],0.8148550987243652,b,89.0
modular,91,b,img/target_6.png,4,5,0.05000000074505806,1.0,58.669891357421875,['b'],0.4433560371398926,b,90.0
modular,92,p,img/target_10.png,4,4,0.05000000074505806,1.0,59.20293426513672,['p'],0.662290096282959,b,91.0
modular,93,r,img/target_4.png,4,1,0.05000000074505806,0.0,59.97019958496094,['r'],1.0790269374847412,b,92.0
modular,94,u,img/target_7.png,4,0,0.05000000074505806,1.0,61.13655090332031,['u'],0.46532106399536133,b,93.0
modular,95,r,img/target_4.png,4,1,0.05000000074505806,1.0,61.704063415527344,['r'],0.47382092475891113,b,94.0
modular,96,u,img/target_7.png,4,0,0.05000000074505806,1.0,62.2703857421875,['u'],0.34655284881591797,b,95.0
modular,97,q,img/target_1.png,4,2,0.05000000074505806,1.0,62.72105407714844,['q'],0.48894405364990234,b,96.0
modular,98,r,img/target_4.png,4,1,0.05000000074505806,1.0,63.304107666015625,['r'],0.3613870143890381,b,97.0
modular,99,u,img/target_7.png,4,0,0.05000000074505806,1.0,63.7700080871582,['u'],0.48697400093078613,b,98.0
modular,100,q,img/target_1.png,4,2,0.05000000074505806,1.0,64.35360717773438,['q'],0.5351841449737549,b,99.0
modular,101,i,img/target_8.png,4,3,0.05000000074505806,0.0,64.98771667480469,['i'],0.7573058605194092,b,100.0
modular,102,p,img/target_10.png,4,4,0.05000000074505806,1.0,65.82078552246094,['p'],0.6373820304870605,b,101.0
modular,103,r,img/target_4.png,4,1,0.05000000074505806,1.0,66.55581665039062,['r'],0.4699099063873291,b,102.0
modular,104,q,img/target_1.png,4,2,0.05000000074505806,1.0,67.12132263183594,['q'],0.45634984970092773,b,103.0
modular,105,p,img/target_10.png,4,4,0.05000000074505806,1.0,67.67157745361328,['p'],0.5384390354156494,b,104.0
modular,106,i,img/target_8.png,4,3,0.05000000074505806,1.0,68.3042984008789,['i'],0.5215499401092529,b,105.0
modular,107,q,img/target_1.png,4,2,0.05000000074505806,1.0,68.92134857177734,['q'],0.5604679584503174,b,106.0
modular,108,u,img/target_7.png,4,0,0.05000000074505806,1.0,69.5875244140625,['u'],0.4144151210784912,b,107.0
modular,109,i,img/target_8.png,4,3,0.05000000074505806,1.0,70.10401153564453,['i'],0.46538209915161133,b,108.0
modular,110,r,img/target_4.png,4,1,0.05000000074505806,1.0,70.67097473144531,['r'],0.4190208911895752,b,109.0
modular,111,q,img/target_1.png,4,2,0.05000000074505806,1.0,71.18856811523438,['q'],0.5886020660400391,b,110.0
modular,112,i,img/target_8.png,4,3,0.05000000074505806,1.0,71.87198638916016,['i'],0.4734971523284912,b,111.0
modular,113,p,img/target_10.png,4,4,0.05000000074505806,1.0,72.43783569335938,['p'],0.42684102058410645,b,112.0
modular,114,i,img/target_8.png,4,3,0.05000000074505806,1.0,72.9554443359375,['i'],0.34240007400512695,b,113.0
modular,115,u,img/target_7.png,4,0,0.05000000074505806,1.0,73.40520477294922,['u'],0.459993839263916,b,114.0
modular,116,w,img/target_2.png,4,9,0.05000000074505806,1.0,73.97158813476562,['w'],0.8209521770477295,b,115.0
modular,117,u,img/target_7.png,4,0,0.05000000074505806,1.0,74.88868713378906,['u'],0.3931150436401367,b,116.0
modular,118,i,img/target_8.png,4,3,0.05000000074505806,1.0,75.38853454589844,['i'],0.45985889434814453,b,117.0
modular,119,u,img/target_7.png,4,0,0.05000000074505806,1.0,75.93782806396484,['u'],0.3349161148071289,b,118.0
modular,120,i,img/target_8.png,4,3,0.05000000074505806,1.0,76.37151336669922,['i'],0.5409941673278809,b,119.0
modular,121,r,img/target_4.png,4,1,0.05000000074505806,1.0,77.00548553466797,['r'],0.4919438362121582,b,120.0
modular,122,u,img/target_7.png,4,0,0.05000000074505806,1.0,77.60551452636719,['u'],0.3315601348876953,b,121.0
modular,123,q,img/target_1.png,4,2,0.05000000074505806,1.0,78.0395278930664,['q'],0.5928888320922852,b,122.0
modular,124,u,img/target_7.png,4,0,0.05000000074505806,1.0,78.72203826904297,['u'],0.44731998443603516,b,123.0
modular,125,r,img/target_4.png,4,1,0.05000000074505806,1.0,79.27136993408203,['r'],0.5449948310852051,b,124.0
modular,126,q,img/target_1.png,4,2,0.05000000074505806,1.0,79.90589141845703,['q'],0.45531606674194336,b,125.0
modular,127,u,img/target_7.png,4,0,0.05000000074505806,1.0,80.45599365234375,['u'],0.3683028221130371,b,126.0
modular,128,i,img/target_8.png,4,3,0.05000000074505806,1.0,80.92283630371094,['i'],0.43860602378845215,b,127.0
modular,129,u,img/target_7.png,4,0,0.05000000074505806,1.0,81.45619201660156,['u'],0.3452448844909668,b,128.0
modular,130,q,img/target_1.png,4,2,0.05000000074505806,1.0,81.9066390991211,['q'],0.6382620334625244,b,129.0
modular,131,u,img/target_7.png,4,0,0.05000000074505806,1.0,82.63973999023438,['u'],0.4249999523162842,b,130.0
modular,132,r,img/target_4.png,4,1,0.05000000074505806,1.0,83.15625,['r'],0.4762451648712158,b,131.0
modular,133,u,img/target_7.png,4,0,0.05000000074505806,1.0,83.7224349975586,['u'],0.3428030014038086,b,132.0
modular,134,r,img/target_4.png,4,1,0.05000000074505806,1.0,84.17192840576172,['r'],0.34912610054016113,b,133.0
modular,135,u,img/target_7.png,4,0,0.05000000074505806,1.0,84.62286376953125,['u'],0.37721991539001465,b,134.0
modular,136,q,img/target_1.png,4,2,0.05000000074505806,1.0,85.09002685546875,['q'],0.5510759353637695,b,135.0
modular,137,p,img/target_10.png,4,4,0.05000000074505806,1.0,85.73961639404297,['p'],0.6295680999755859,b,136.0
modular,138,q,img/target_1.png,4,2,0.05000000074505806,1.0,86.4722900390625,['q'],0.6079859733581543,b,137.0
modular,139,r,img/target_4.png,4,1,0.05000000074505806,1.0,87.17338562011719,['r'],0.37987303733825684,b,138.0
modular,140,u,img/target_7.png,4,0,0.05000000074505806,1.0,87.65689849853516,['u'],0.4310798645019531,b,139.0
modular,141,q,img/target_1.png,4,2,0.05000000074505806,1.0,88.19007110595703,['q'],0.4579288959503174,b,140.0
modular,142,u,img/target_7.png,4,0,0.05000000074505806,1.0,88.74042510986328,['u'],0.45188093185424805,b,141.0
modular,143,w,img/target_2.png,4,9,0.05000000074505806,1.0,89.28916931152344,['w'],0.6876869201660156,b,142.0
modular,144,e,img/target_3.png,4,7,0.05000000074505806,1.0,90.07328033447266,['e'],0.6077969074249268,b,143.0
modular,145,v,img/target_5.png,4,6,0.05000000074505806,1.0,90.7731704711914,['v'],0.5234849452972412,b,144.0
modular,146,w,img/target_2.png,4,9,0.05000000074505806,1.0,91.38939666748047,['w'],0.6674230098724365,b,145.0
modular,147,u,img/target_7.png,4,0,0.05000000074505806,1.0,92.15616607666016,['u'],0.46824216842651367,b,146.0
modular,148,r,img/target_4.png,4,1,0.05000000074505806,0.0,92.72348022460938,['r'],0.69234299659729,b,147.0
modular,149,q,img/target_1.png,4,2,0.05000000074505806,1.0,93.49078369140625,['q'],0.4051189422607422,b,148.0
modular,150,p,img/target_10.png,4,4,0.05000000074505806,1.0,93.99028015136719,['p'],0.5222949981689453,b,149.0
modular,151,b,img/target_6.png,4,5,0.05000000074505806,1.0,94.60620880126953,['b'],0.4900801181793213,b,150.0
modular,152,p,img/target_10.png,4,4,0.05000000074505806,1.0,95.1906967163086,['p'],0.43381190299987793,b,151.0
modular,153,b,img/target_6.png,4,5,0.05000000074505806,1.0,95.72452545166016,['b'],0.4525148868560791,b,152.0
modular,154,v,img/target_5.png,4,6,0.05000000074505806,1.0,96.27391815185547,['v'],0.42192912101745605,b,153.0
modular,155,b,img/target_6.png,4,5,0.05000000074505806,1.0,96.79017639160156,['b'],0.40192317962646484,b,154.0
modular,156,p,img/target_10.png,4,4,0.05000000074505806,1.0,97.29106903076172,['p'],0.4294250011444092,b,155.0
modular,157,b,img/target_6.png,4,5,0.05000000074505806,1.0,97.82461547851562,['b'],0.4153330326080322,b,156.0
modular,158,e,img/target_3.png,4,7,0.05000000074505806,0.0,98.34130096435547,['e'],0.8355350494384766,b,157.0
modular,159,b,img/target_6.png,4,5,0.05000000074505806,1.0,99.25692749023438,['b'],0.48690104484558105,b,158.0
modular,160,p,img/target_10.png,4,4,0.05000000074505806,1.0,99.84040069580078,['p'],0.4871947765350342,b,159.0
modular,161,r,img/target_4.png,4,1,0.05000000074505806,1.0,100.4244613647461,['r'],0.5191819667816162,b,160.0
modular,162,q,img/target_1.png,4,2,0.05000000074505806,1.0,101.0414810180664,['q'],0.4140810966491699,b,161.0
modular,163,r,img/target_4.png,4,1,0.05000000074505806,1.0,101.55795288085938,['r'],0.41005396842956543,b,162.0
modular,164,i,img/target_8.png,4,3,0.05000000074505806,1.0,102.05806732177734,['i'],0.9495539665222168,b,163.0
modular,165,q,img/target_1.png,4,2,0.05000000074505806,1.0,103.10810852050781,['q'],0.5004260540008545,b,164.0
modular,166,i,img/target_8.png,4,3,0.05000000074505806,0.0,103.70826721191406,['i'],0.8915519714355469,b,165.0
modular,167,u,img/target_7.png,4,0,0.05000000074505806,1.0,104.67501068115234,['u'],0.47647905349731445,b,166.0
modular,168,q,img/target_1.png,4,2,0.05000000074505806,1.0,105.24105072021484,['q'],0.5423660278320312,b,167.0
modular,169,i,img/target_8.png,4,3,0.05000000074505806,1.0,105.8744125366211,['i'],0.43834400177001953,b,168.0
modular,170,q,img/target_1.png,4,2,0.05000000074505806,1.0,106.40809631347656,['q'],0.45638084411621094,b,169.0
modular,171,r,img/target_4.png,4,1,0.05000000074505806,1.0,106.95832061767578,['r'],0.3693840503692627,b,170.0
modular,172,u,img/target_7.png,4,0,0.05000000074505806,1.0,107.42545318603516,['u'],0.4698970317840576,b,171.0
modular,173,i,img/target_8.png,4,3,0.05000000074505806,1.0,107.99198150634766,['i'],0.39264893531799316,b,172.0
modular,174,p,img/target_10.png,4,4,0.05000000074505806,1.0,108.49238586425781,['p'],0.5160849094390869,b,173.0
modular,175,b,img/target_6.png,4,5,0.05000000074505806,1.0,109.10858154296875,['b'],0.45144200325012207,b,174.0
modular,176,p,img/target_10.png,4,4,0.05000000074505806,1.0,109.65779113769531,['p'],0.4626171588897705,b,175.0
modular,177,i,img/target_8.png,4,3,0.05000000074505806,1.0,110.22460174560547,['i'],0.5118510723114014,b,176.0
modular,178,q,img/target_1.png,4,2,0.05000000074505806,1.0,110.84120178222656,['q'],0.6622388362884521,b,177.0
modular,179,i,img/target_8.png,4,3,0.05000000074505806,1.0,111.60897064208984,['i'],0.8953859806060791,b,178.0
modular,180,q,img/target_1.png,4,2,0.05000000074505806,1.0,112.61035919189453,['q'],0.5980000495910645,b,179.0
modular,181,u,img/target_7.png,4,0,0.05000000074505806,1.0,113.30914306640625,['u'],0.8192358016967773,b,180.0
modular,182,q,img/target_1.png,4,2,0.05000000074505806,1.0,114.22473907470703,['q'],0.5344657897949219,b,181.0
modular,183,i,img/target_8.png,4,3,0.05000000074505806,1.0,114.8592529296875,['i'],0.6372089385986328,b,182.0
modular,184,p,img/target_10.png,4,4,0.05000000074505806,1.0,115.59169006347656,['p'],0.5683529376983643,b,183.0
modular,185,b,img/target_6.png,4,5,0.05000000074505806,1.0,116.25907135009766,['b'],0.5483369827270508,b,184.0
modular,186,o,img/target_9.png,4,8,0.05000000074505806,1.0,116.90838623046875,['o'],0.6751019954681396,b,185.0
modular,187,b,img/target_6.png,4,5,0.05000000074505806,1.0,117.67621612548828,['b'],0.4840998649597168,b,186.0
modular,188,o,img/target_9.png,4,8,0.05000000074505806,1.0,118.259765625,['o'],0.4111449718475342,b,187.0
modular,189,e,img/target_3.png,4,7,0.05000000074505806,1.0,118.77523040771484,['e'],0.7369379997253418,b,188.0
modular,190,b,img/target_6.png,4,5,0.05000000074505806,1.0,119.60894775390625,['b'],0.4300410747528076,b,189.0
modular,191,p,img/target_10.png,4,4,0.05000000074505806,1.0,120.1420669555664,['p'],0.5368189811706543,b,190.0
modular,192,b,img/target_6.png,4,5,0.05000000074505806,1.0,120.77648162841797,['b'],0.4393939971923828,b,191.0
modular,193,v,img/target_5.png,4,6,0.05000000074505806,1.0,121.30994415283203,['v'],0.4257380962371826,b,192.0
modular,194,o,img/target_9.png,4,8,0.05000000074505806,1.0,121.82606506347656,['o'],0.6058738231658936,b,193.0
modular,195,v,img/target_5.png,4,6,0.05000000074505806,1.0,122.52680969238281,['v'],0.4651000499725342,b,194.0
modular,196,w,img/target_2.png,4,9,0.05000000074505806,1.0,123.09334564208984,['w'],0.69063401222229,b,195.0
modular,197,v,img/target_5.png,4,6,0.05000000074505806,1.0,123.87619018554688,['v'],0.386868953704834,b,196.0
modular,198,w,img/target_2.png,4,9,0.05000000074505806,1.0,124.35921478271484,['w'],0.4715399742126465,b,197.0
modular,199,u,img/target_7.png,4,0,0.05000000074505806,1.0,124.9266128540039,['u'],0.5441851615905762,b,198.0
modular,200,i,img/target_8.png,4,3,0.05000000074505806,1.0,125.57617950439453,['i'],0.6785311698913574,b,199.0
modular,201,r,img/target_4.png,4,1,0.05000000074505806,1.0,126.36058044433594,['r'],0.5112709999084473,b,200.0
modular,202,p,img/target_10.png,4,4,0.05000000074505806,1.0,126.97701263427734,['p'],0.5181400775909424,b,201.0
modular,203,q,img/target_1.png,4,2,0.05000000074505806,1.0,127.59268188476562,['q'],0.47888994216918945,b,202.0
modular,204,i,img/target_8.png,4,3,0.05000000074505806,1.0,128.17718505859375,['i'],0.550386905670166,b,203.0
modular,205,q,img/target_1.png,4,2,0.05000000074505806,1.0,128.82627868652344,['q'],0.4765961170196533,b,204.0
modular,206,u,img/target_7.png,4,0,0.05000000074505806,1.0,129.3934326171875,['u'],0.6535558700561523,b,205.0
modular,207,r,img/target_4.png,4,1,0.05000000074505806,1.0,130.1439971923828,['r'],0.5506191253662109,b,206.0
modular,208,u,img/target_7.png,4,0,0.05000000074505806,1.0,130.79400634765625,['u'],0.42165398597717285,b,207.0
modular,209,q,img/target_1.png,4,2,0.05000000074505806,1.0,131.3105010986328,['q'],0.4400620460510254,b,208.0
modular,210,r,img/target_4.png,4,1,0.05000000074505806,1.0,131.84417724609375,['r'],0.39525794982910156,b,209.0
modular,211,u,img/target_7.png,4,0,0.05000000074505806,1.0,132.3444366455078,['u'],0.4623270034790039,b,210.0
modular,212,w,img/target_2.png,4,9,0.05000000074505806,1.0,132.9109344482422,['w'],0.6328558921813965,b,211.0
modular,213,o,img/target_9.png,4,8,0.05000000074505806,1.0,133.6447296142578,['o'],0.5705840587615967,b,212.0
modular,214,v,img/target_5.png,4,6,0.05000000074505806,1.0,134.326904296875,['v'],0.38376498222351074,b,213.0
modular,215,w,img/target_2.png,4,9,0.05000000074505806,1.0,134.8109588623047,['w'],0.6441190242767334,b,214.0
modular,216,v,img/target_5.png,4,6,0.05000000074505806,1.0,135.56121826171875,['v'],0.4854559898376465,b,215.0
modular,217,b,img/target_6.png,4,5,0.05000000074505806,1.0,136.14451599121094,['b'],0.4218759536743164,b,216.0
modular,218,o,img/target_9.png,4,8,0.05000000074505806,1.0,136.6613311767578,['o'],0.5699820518493652,b,217.0
modular,219,b,img/target_6.png,4,5,0.05000000074505806,1.0,137.32847595214844,['b'],0.5825300216674805,b,218.0
modular,220,p,img/target_10.png,4,4,0.05000000074505806,1.0,138.01165771484375,['p'],0.4828488826751709,b,219.0
modular,221,i,img/target_8.png,4,3,0.05000000074505806,1.0,138.59500122070312,['i'],0.5003139972686768,b,220.0
modular,222,u,img/target_7.png,4,0,0.05000000074505806,1.0,139.19387817382812,['u'],0.477323055267334,b,221.0
modular,223,i,img/target_8.png,4,3,0.05000000074505806,1.0,139.7772979736328,['i'],0.4777371883392334,b,222.0
modular,224,p,img/target_10.png,4,4,0.05000000074505806,1.0,140.36053466796875,['p'],0.5189318656921387,b,223.0
modular,225,r,img/target_4.png,4,1,0.05000000074505806,1.0,140.9783935546875,['r'],0.4358658790588379,b,224.0
modular,226,i,img/target_8.png,4,3,0.05000000074505806,1.0,141.51211547851562,['i'],0.4302811622619629,b,225.0
modular,227,u,img/target_7.png,4,0,0.05000000074505806,1.0,142.044921875,['u'],0.37713193893432617,b,226.0
modular,228,i,img/target_8.png,4,3,0.05000000074505806,1.0,142.5115966796875,['i'],0.4629099369049072,b,227.0
modular,229,r,img/target_4.png,4,1,0.05000000074505806,1.0,143.07852172851562,['r'],0.47263503074645996,b,228.0
modular,230,i,img/target_8.png,4,3,0.05000000074505806,1.0,143.64501953125,['i'],0.47301793098449707,b,229.0
modular,231,r,img/target_4.png,4,1,0.05000000074505806,1.0,144.2119903564453,['r'],0.5462899208068848,b,230.0
modular,232,i,img/target_8.png,4,3,0.05000000074505806,0.0,144.86216735839844,['i'],0.6008119583129883,b,231.0
modular,233,q,img/target_1.png,4,2,0.05000000074505806,1.0,145.54466247558594,['q'],0.5259039402008057,b,232.0
modular,234,u,img/target_7.png,4,0,0.05000000074505806,1.0,146.16220092773438,['u'],0.48463988304138184,b,233.0
modular,235,w,img/target_2.png,4,9,0.05000000074505806,1.0,146.7447052001953,['w'],0.48615288734436035,b,234.0
modular,236,o,img/target_9.png,4,8,0.05000000074505806,0.0,147.3289794921875,['o'],0.7261350154876709,b,235.0
modular,237,v,img/target_5.png,4,6,0.05000000074505806,0.0,148.14486694335938,['v'],0.7017669677734375,b,236.0
modular,238,w,img/target_2.png,4,9,0.05000000074505806,1.0,148.92825317382812,['w'],0.5506768226623535,b,237.0
modular,239,e,img/target_3.png,4,7,0.05000000074505806,1.0,149.5789337158203,['e'],0.4842050075531006,b,238.0
modular,240,o,img/target_9.png,4,8,0.05000000074505806,1.0,150.16221618652344,['o'],0.5489990711212158,b,239.0
modular,241,v,img/target_5.png,4,6,0.05000000074505806,1.0,150.8129119873047,['v'],0.4890909194946289,b,240.0
modular,242,e,img/target_3.png,4,7,0.05000000074505806,1.0,151.39657592773438,['e'],0.5611991882324219,b,241.0
modular,243,v,img/target_5.png,4,6,0.05000000074505806,1.0,152.06277465820312,['v'],0.42310595512390137,b,242.0
modular,244,b,img/target_6.png,4,5,0.05000000074505806,1.0,152.579833984375,['b'],0.43512606620788574,b,243.0
modular,245,p,img/target_10.png,4,4,0.05000000074505806,1.0,153.11341857910156,['p'],0.5402858257293701,b,244.0
modular,246,b,img/target_6.png,4,5,0.05000000074505806,1.0,153.7462615966797,['b'],0.5407748222351074,b,245.0
modular,247,e,img/target_3.png,4,7,0.05000000074505806,1.0,154.37945556640625,['e'],0.5704410076141357,b,246.0
modular,248,v,img/target_5.png,4,6,0.05000000074505806,1.0,155.04640197753906,['v'],0.512160062789917,b,247.0
modular,249,e,img/target_3.png,4,7,0.05000000074505806,1.0,155.6625213623047,['e'],0.5433831214904785,b,248.0
modular,250,b,img/target_6.png,4,5,0.05000000074505806,0.0,156.2957305908203,['b'],0.5668179988861084,b,249.0
modular,251,o,img/target_9.png,4,8,0.05000000074505806,1.0,156.9459991455078,['o'],0.5246670246124268,b,250.0
modular,252,w,img/target_2.png,4,9,0.05000000074505806,1.0,157.56300354003906,['w'],0.6266379356384277,b,251.0
modular,253,v,img/target_5.png,4,6,0.05000000074505806,1.0,158.2793731689453,['v'],0.3982679843902588,b,252.0
modular,254,e,img/target_3.png,4,7,0.05000000074505806,1.0,158.78030395507812,['e'],0.5375571250915527,b,253.0
modular,255,w,img/target_2.png,4,9,0.05000000074505806,1.0,159.4131622314453,['w'],0.38449597358703613,b,254.0
modular,256,v,img/target_5.png,4,6,0.05000000074505806,1.0,159.89590454101562,['v'],0.3825259208679199,b,255.0
modular,257,w,img/target_2.png,4,9,0.05000000074505806,1.0,160.3814697265625,['w'],0.3522629737854004,b,256.0
modular,258,u,img/target_7.png,4,0,0.05000000074505806,1.0,160.83023071289062,['u'],0.5519249439239502,b,257.0
modular,259,q,img/target_1.png,4,2,0.05000000074505806,1.0,161.4794921875,['q'],0.5827281475067139,b,258.0
modular,260,r,img/target_4.png,4,1,0.05000000074505806,0.0,162.16366577148438,['r'],0.7862508296966553,b,259.0
modular,261,p,img/target_10.png,4,4,0.05000000074505806,1.0,163.02975463867188,['p'],0.5999660491943359,b,260.0
modular,262,b,img/target_6.png,4,5,0.05000000074505806,1.0,163.72976684570312,['b'],0.48379993438720703,b,261.0
modular,263,v,img/target_5.png,4,6,0.05000000074505806,1.0,164.313720703125,['v'],0.4359250068664551,b,262.0
modular,264,w,img/target_2.png,4,9,0.05000000074505806,1.0,164.84666442871094,['w'],0.5675671100616455,b,263.0
modular,265,o,img/target_9.png,4,8,0.05000000074505806,1.0,165.5130615234375,['o'],0.5085139274597168,b,264.0
modular,266,b,img/target_6.png,4,5,0.05000000074505806,1.0,166.11395263671875,['b'],0.3954770565032959,b,265.0
modular,267,p,img/target_10.png,4,4,0.05000000074505806,1.0,166.61410522460938,['p'],0.5991518497467041,b,266.0
modular,268,b,img/target_6.png,4,5,0.05000000074505806,1.0,167.31321716308594,['b'],0.37315797805786133,b,267.0
modular,269,v,img/target_5.png,4,6,0.05000000074505806,1.0,167.78099060058594,['v'],0.3762199878692627,b,268.0
modular,270,w,img/target_2.png,4,9,0.05000000074505806,1.0,168.2473602294922,['w'],0.5028960704803467,b,269.0
modular,271,o,img/target_9.png,4,8,0.05000000074505806,1.0,168.84800720214844,['o'],0.6292650699615479,b,270.0
modular,272,v,img/target_5.png,4,6,0.05000000074505806,1.0,169.58045959472656,['v'],0.3528430461883545,b,271.0
modular,273,e,img/target_3.png,4,7,0.05000000074505806,1.0,170.0312957763672,['e'],0.5740981101989746,b,272.0
modular,274,v,img/target_5.png,4,6,0.05000000074505806,1.0,170.69773864746094,['v'],0.4758470058441162,b,273.0
modular,275,o,img/target_9.png,4,8,0.05000000074505806,1.0,171.28128051757812,['o'],0.4610881805419922,b,274.0
modular,276,v,img/target_5.png,4,6,0.05000000074505806,1.0,171.8495330810547,['v'],0.43662405014038086,b,275.0
modular,277,o,img/target_9.png,4,8,0.05000000074505806,1.0,172.38453674316406,['o'],0.40517616271972656,b,276.0
modular,278,v,img/target_5.png,4,6,0.05000000074505806,1.0,172.88177490234375,['v'],0.3714179992675781,b,277.0
modular,279,b,img/target_6.png,4,5,0.05000000074505806,1.0,173.35235595703125,['b'],0.509058952331543,b,278.0
modular,280,p,img/target_10.png,4,4,0.05000000074505806,1.0,173.96388244628906,['p'],0.5698120594024658,b,279.0
modular,281,r,img/target_4.png,4,1,0.05000000074505806,1.0,174.63331604003906,['r'],0.6766200065612793,b,280.0
modular,282,p,img/target_10.png,4,4,0.05000000074505806,1.0,175.41920471191406,['p'],0.458143949508667,b,281.0
modular,283,q,img/target_1.png,4,2,0.05000000074505806,1.0,175.9843292236328,['q'],0.4367389678955078,b,282.0
modular,284,r,img/target_4.png,4,1,0.05000000074505806,1.0,176.51882934570312,['r'],0.32689714431762695,b,283.0
modular,285,q,img/target_1.png,4,2,0.05000000074505806,1.0,176.95436096191406,['q'],0.3867061138153076,b,284.0
modular,286,p,img/target_10.png,4,4,0.05000000074505806,1.0,177.43527221679688,['p'],0.593937873840332,b,285.0
modular,287,b,img/target_6.png,4,5,0.05000000074505806,1.0,178.13409423828125,['b'],0.4630429744720459,b,286.0
modular,288,v,img/target_5.png,4,6,0.05000000074505806,1.0,178.69862365722656,['v'],0.33028507232666016,b,287.0
modular,289,b,img/target_6.png,4,5,0.05000000074505806,1.0,179.13206481933594,['b'],0.4009130001068115,b,288.0
modular,290,v,img/target_5.png,4,6,0.05000000074505806,1.0,179.6315460205078,['v'],0.38143014907836914,b,289.0
modular,291,w,img/target_2.png,4,9,0.05000000074505806,1.0,180.12014770507812,['w'],0.4538888931274414,b,290.0
modular,292,o,img/target_9.png,4,8,0.05000000074505806,1.0,180.68563842773438,['o'],0.47934889793395996,b,291.0
modular,293,b,img/target_6.png,4,5,0.05000000074505806,1.0,181.26890563964844,['b'],0.6161630153656006,b,292.0
modular,294,e,img/target_3.png,4,7,0.05000000074505806,0.0,181.98135375976562,['e'],0.7361478805541992,b,293.0
modular,295,v,img/target_5.png,4,6,0.05000000074505806,1.0,182.79823303222656,['v'],0.40656590461730957,b,294.0
modular,296,o,img/target_9.png,4,8,0.05000000074505806,1.0,183.29931640625,['o'],0.4500448703765869,b,295.0
modular,297,w,img/target_2.png,4,9,0.05000000074505806,1.0,183.84939575195312,['w'],0.5634098052978516,b,296.0
modular,298,v,img/target_5.png,4,6,0.05000000074505806,1.0,184.51882934570312,['v'],0.437777042388916,b,297.0
modular,299,e,img/target_3.png,4,7,0.05000000074505806,1.0,185.04901123046875,['e'],0.4684319496154785,b,298.0
modular,300,w,img/target_2.png,4,9,0.05000000074505806,1.0,185.6157684326172,['w'],0.3567519187927246,b,299.0
modular,301,o,img/target_9.png,4,8,0.05000000074505806,1.0,186.06617736816406,['o'],0.5393929481506348,b,300.0
modular,302,e,img/target_3.png,4,7,0.05000000074505806,1.0,186.7027587890625,['e'],0.6946959495544434,b,301.0
modular,303,w,img/target_2.png,4,9,0.05000000074505806,1.0,187.49954223632812,['w'],0.3939239978790283,b,302.0
modular,304,v,img/target_5.png,4,6,0.05000000074505806,1.0,187.9985809326172,['v'],0.3821249008178711,b,303.0
modular,305,e,img/target_3.png,4,7,0.05000000074505806,1.0,188.48318481445312,['e'],0.40221190452575684,b,304.0
modular,306,b,img/target_6.png,4,5,0.05000000074505806,1.0,188.98182678222656,['b'],0.47972607612609863,b,305.0
modular,307,e,img/target_3.png,4,7,0.05000000074505806,1.0,189.5652618408203,['e'],0.4563570022583008,b,306.0
modular,308,v,img/target_5.png,4,6,0.05000000074505806,1.0,190.11634826660156,['v'],0.46417999267578125,b,307.0
modular,309,b,img/target_6.png,4,5,0.05000000074505806,1.0,190.68251037597656,['b'],0.4345698356628418,b,308.0
modular,310,p,img/target_10.png,4,4,0.05000000074505806,1.0,191.21542358398438,['p'],0.6462371349334717,b,309.0
modular,311,i,img/target_8.png,4,3,0.05000000074505806,0.0,191.96664428710938,['i'],1.0781819820404053,b,310.0
modular,312,p,img/target_10.png,4,4,0.05000000074505806,0.0,193.13572692871094,['p'],0.7814061641693115,b,311.0
modular,313,i,img/target_8.png,4,3,0.05000000074505806,0.0,193.99920654296875,['i'],0.7176311016082764,b,312.0
modular,314,q,img/target_1.png,4,2,0.05000000074505806,1.0,194.79930114746094,['q'],0.6858139038085938,b,313.0
modular,315,u,img/target_7.png,4,0,0.05000000074505806,1.0,195.5879669189453,['u'],0.5530469417572021,b,314.0
modular,316,i,img/target_8.png,4,3,0.05000000074505806,1.0,196.23831176757812,['i'],0.559257984161377,b,315.0
modular,317,q,img/target_1.png,4,2,0.05000000074505806,1.0,196.9034423828125,['q'],0.5659129619598389,b,316.0
modular,318,u,img/target_7.png,4,0,0.05000000074505806,1.0,197.57118225097656,['u'],0.5052981376647949,b,317.0
modular,319,q,img/target_1.png,4,2,0.05000000074505806,1.0,198.18438720703125,['q'],0.4999380111694336,b,318.0
modular,320,i,img/target_8.png,4,3,0.05000000074505806,1.0,198.78591918945312,['i'],0.6111800670623779,b,319.0
modular,321,p,img/target_10.png,4,4,0.05000000074505806,1.0,199.5037384033203,['p'],0.4604167938232422,b,320.0
modular,322,b,img/target_6.png,4,5,0.05000000074505806,1.0,200.07200622558594,['b'],0.49290895462036133,b,321.0
modular,323,e,img/target_3.png,4,7,0.05000000074505806,1.0,200.66635131835938,['e'],0.6983859539031982,b,322.0
modular,324,w,img/target_2.png,4,9,0.05000000074505806,1.0,201.4666290283203,['w'],0.42547106742858887,b,323.0
modular,325,e,img/target_3.png,4,7,0.05000000074505806,1.0,201.98435974121094,['e'],0.444627046585083,b,324.0
modular,326,b,img/target_6.png,4,5,0.05000000074505806,1.0,202.53427124023438,['b'],0.4219779968261719,b,325.0
modular,327,v,img/target_5.png,4,6,0.05000000074505806,1.0,203.0506134033203,['v'],0.3465561866760254,b,326.0
modular,328,w,img/target_2.png,4,9,0.05000000074505806,1.0,203.50135803222656,['w'],0.5747470855712891,b,327.0
modular,329,e,img/target_3.png,4,7,0.05000000074505806,1.0,204.16758728027344,['e'],0.3324768543243408,b,328.0
modular,330,o,img/target_9.png,4,8,0.05000000074505806,1.0,204.60015869140625,['o'],0.5251030921936035,b,329.0
modular,331,v,img/target_5.png,4,6,0.05000000074505806,1.0,205.2177276611328,['v'],0.47507786750793457,b,330.0
modular,332,e,img/target_3.png,4,7,0.05000000074505806,1.0,205.78433227539062,['e'],0.5236802101135254,b,331.0
modular,333,b,img/target_6.png,4,5,0.05000000074505806,1.0,206.40133666992188,['b'],0.46668410301208496,b,332.0
modular,334,e,img/target_3.png,4,7,0.05000000074505806,1.0,206.96914672851562,['e'],0.4587860107421875,b,333.0
modular,335,v,img/target_5.png,4,6,0.05000000074505806,1.0,207.51776123046875,['v'],0.4383528232574463,b,334.0
modular,336,w,img/target_2.png,4,9,0.05000000074505806,1.0,208.0514373779297,['w'],0.5285289287567139,b,335.0
modular,337,u,img/target_7.png,4,0,0.05000000074505806,1.0,208.6851348876953,['u'],0.5675160884857178,b,336.0
modular,338,w,img/target_2.png,4,9,0.05000000074505806,1.0,209.3509979248047,['w'],0.49313902854919434,b,337.0
modular,339,o,img/target_9.png,4,8,0.05000000074505806,1.0,209.93490600585938,['o'],0.5571198463439941,b,338.0
modular,340,w,img/target_2.png,4,9,0.05000000074505806,1.0,210.58497619628906,['w'],0.5155560970306396,b,339.0
modular,341,v,img/target_5.png,4,6,0.05000000074505806,1.0,211.20323181152344,['v'],0.4898231029510498,b,340.0
modular,342,w,img/target_2.png,4,9,0.05000000074505806,1.0,211.8019561767578,['w'],0.4023160934448242,b,341.0
modular,343,o,img/target_9.png,4,8,0.05000000074505806,1.0,212.30589294433594,['o'],0.5146160125732422,b,342.0
modular,344,b,img/target_6.png,4,5,0.05000000074505806,1.0,212.9191131591797,['b'],0.4932069778442383,b,343.0
modular,345,o,img/target_9.png,4,8,0.05000000074505806,1.0,213.518798828125,['o'],0.5338680744171143,b,344.0
modular,346,b,img/target_6.png,4,5,0.05000000074505806,1.0,214.16903686523438,['b'],0.4427330493927002,b,345.0
modular,347,e,img/target_3.png,4,7,0.05000000074505806,1.0,214.7015380859375,['e'],0.6385869979858398,b,346.0
modular,348,b,img/target_6.png,4,5,0.05000000074505806,1.0,215.43930053710938,['b'],0.42844390869140625,b,347.0
modular,349,o,img/target_9.png,4,8,0.05000000074505806,1.0,215.96791076660156,['o'],0.5718801021575928,b,348.0
modular,350,v,img/target_5.png,4,6,0.05000000074505806,1.0,216.63720703125,['v'],0.4152219295501709,b,349.0
modular,351,e,img/target_3.png,4,7,0.05000000074505806,1.0,217.15255737304688,['e'],0.49985599517822266,b,350.0
modular,352,o,img/target_9.png,4,8,0.05000000074505806,1.0,217.77603149414062,['o'],0.5245158672332764,b,351.0
modular,353,b,img/target_6.png,4,5,0.05000000074505806,1.0,218.40545654296875,['b'],0.47128820419311523,b,352.0
modular,354,e,img/target_3.png,4,7,0.05000000074505806,1.0,218.9691619873047,['e'],0.5549538135528564,b,353.0
modular,355,b,img/target_6.png,4,5,0.05000000074505806,1.0,219.61886596679688,['b'],0.6085720062255859,b,354.0
modular,356,e,img/target_3.png,4,7,0.05000000074505806,1.0,220.3189239501953,['e'],0.5167829990386963,b,355.0
modular,357,b,img/target_6.png,4,5,0.05000000074505806,1.0,220.93594360351562,['b'],0.4764220714569092,b,356.0
modular,358,o,img/target_9.png,4,8,0.05000000074505806,1.0,221.50245666503906,['o'],0.509101152420044,b,357.0
modular,359,e,img/target_3.png,4,7,0.05000000074505806,1.0,222.1034393310547,['e'],0.6208810806274414,b,358.0
modular,360,o,img/target_9.png,4,8,0.05000000074505806,1.0,222.82522583007812,['o'],0.5710690021514893,b,359.0
modular,361,w,img/target_2.png,4,9,0.05000000074505806,1.0,223.5070037841797,['w'],0.47241783142089844,b,360.0
modular,362,e,img/target_3.png,4,7,0.05000000074505806,1.0,224.0871124267578,['e'],0.5402059555053711,b,361.0
modular,363,w,img/target_2.png,4,9,0.05000000074505806,1.0,224.72592163085938,['w'],0.42966485023498535,b,362.0
modular,364,v,img/target_5.png,4,6,0.05000000074505806,1.0,225.25755310058594,['v'],0.4817500114440918,b,363.0
modular,365,o,img/target_9.png,4,8,0.05000000074505806,1.0,225.83792114257812,['o'],0.397615909576416,b,364.0
modular,366,v,img/target_5.png,4,6,0.05000000074505806,1.0,226.33682250976562,['v'],0.44263505935668945,b,365.0
modular,367,o,img/target_9.png,4,8,0.05000000074505806,1.0,226.87449645996094,['o'],0.40899205207824707,b,366.0
modular,368,w,img/target_2.png,4,9,0.05000000074505806,1.0,227.38946533203125,['w'],0.5496268272399902,b,367.0
modular,369,e,img/target_3.png,4,7,0.05000000074505806,1.0,228.04225158691406,['e'],0.4820988178253174,b,368.0
modular,370,w,img/target_2.png,4,9,0.05000000074505806,1.0,228.6224365234375,['w'],0.17275285720825195,b,369.0
modular,371,e,img/target_3.png,4,7,0.05000000074505806,1.0,228.88670349121094,['e'],0.42890000343322754,b,370.0
modular,372,v,img/target_5.png,4,6,0.05000000074505806,1.0,229.42027282714844,['v'],0.3990910053253174,b,371.0
modular,373,o,img/target_9.png,4,8,0.05000000074505806,1.0,229.92718505859375,['o'],0.38015007972717285,b,372.0
modular,374,b,img/target_6.png,4,5,0.05000000074505806,1.0,230.40658569335938,['b'],0.5734138488769531,b,373.0
modular,375,p,img/target_10.png,4,4,0.05000000074505806,1.0,231.0858917236328,['p'],0.8941709995269775,b,374.0
modular,376,q,img/target_1.png,4,2,0.05000000074505806,1.0,232.11093139648438,['q'],0.4843719005584717,b,375.0
modular,377,u,img/target_7.png,4,0,0.05000000074505806,1.0,232.687744140625,['u'],0.5720539093017578,b,376.0
modular,378,q,img/target_1.png,4,2,0.05000000074505806,1.0,233.35360717773438,['q'],0.5215950012207031,b,377.0
modular,379,p,img/target_10.png,4,4,0.05000000074505806,1.0,233.97401428222656,['p'],0.573667049407959,b,378.0
modular,380,b,img/target_6.png,4,5,0.05000000074505806,1.0,234.654296875,['b'],0.5087051391601562,b,379.0
modular,381,o,img/target_9.png,4,8,0.05000000074505806,1.0,235.2539825439453,['o'],0.5250890254974365,b,380.0
modular,382,b,img/target_6.png,4,5,0.05000000074505806,1.0,235.87066650390625,['b'],0.4214749336242676,b,381.0
modular,383,p,img/target_10.png,4,4,0.05000000074505806,1.0,236.38670349121094,['p'],0.705103874206543,b,382.0
modular,384,i,img/target_8.png,4,3,0.05000000074505806,1.0,237.18734741210938,['i'],0.9514598846435547,b,383.0
modular,385,u,img/target_7.png,4,0,0.05000000074505806,1.0,238.2395477294922,['u'],0.4123971462249756,b,384.0
modular,386,i,img/target_8.png,4,3,0.05000000074505806,1.0,238.75416564941406,['i'],0.4407169818878174,b,385.0
modular,387,r,img/target_4.png,4,1,0.05000000074505806,1.0,239.28736877441406,['r'],0.43683314323425293,b,386.0
modular,388,p,img/target_10.png,4,4,0.05000000074505806,1.0,239.824462890625,['p'],0.4346449375152588,b,387.0
modular,389,b,img/target_6.png,4,5,0.05000000074505806,1.0,240.357666015625,['b'],0.4609839916229248,b,388.0
modular,390,p,img/target_10.png,4,4,0.05000000074505806,1.0,240.92031860351562,['p'],0.46753501892089844,b,389.0
modular,391,r,img/target_4.png,4,1,0.05000000074505806,1.0,241.4919891357422,['r'],0.49489498138427734,b,390.0
modular,392,i,img/target_8.png,4,3,0.05000000074505806,1.0,242.08871459960938,['i'],0.594728946685791,b,391.0
modular,393,r,img/target_4.png,4,1,0.05000000074505806,1.0,242.79296875,['r'],0.5141820907592773,b,392.0
modular,394,p,img/target_10.png,4,4,0.05000000074505806,1.0,243.40525817871094,['p'],0.4301779270172119,b,393.0
modular,395,b,img/target_6.png,4,5,0.05000000074505806,1.0,243.94088745117188,['b'],0.3746919631958008,b,394.0
modular,396,o,img/target_9.png,4,8,0.05000000074505806,1.0,244.42166137695312,['o'],0.5259249210357666,b,395.0
modular,397,e,img/target_3.png,4,7,0.05000000074505806,1.0,245.0593719482422,['e'],0.791968822479248,b,396.0
modular,398,w,img/target_2.png,4,9,0.05000000074505806,1.0,245.9548797607422,['w'],0.39295411109924316,b,397.0
modular,399,v,img/target_5.png,4,6,0.05000000074505806,1.0,246.45603942871094,['v'],0.41045713424682617,b,398.0
modular,400,e,img/target_3.png,4,7,0.05000000074505806,1.0,246.97474670410156,['e'],0.460770845413208,b,399.0
modular,401,o,img/target_9.png,4,8,0.05000000074505806,1.0,247.53843688964844,['o'],0.5924789905548096,b,400.0
modular,402,v,img/target_5.png,4,6,0.05000000074505806,1.0,248.2290496826172,['v'],0.42174506187438965,b,401.0
modular,403,o,img/target_9.png,4,8,0.05000000074505806,1.0,248.75970458984375,['o'],0.5066649913787842,b,402.0
modular,404,w,img/target_2.png,4,9,0.05000000074505806,1.0,249.37124633789062,['w'],0.5276799201965332,b,403.0
modular,405,u,img/target_7.png,4,0,0.05000000074505806,1.0,250.0060577392578,['u'],0.5249030590057373,b,404.0
modular,406,q,img/target_1.png,4,2,0.05000000074505806,1.0,250.6588897705078,['q'],0.5194129943847656,b,405.0
modular,407,u,img/target_7.png,4,0,0.05000000074505806,0.0,251.27230834960938,['u'],0.874183177947998,b,406.0
modular,408,q,img/target_1.png,4,2,0.05000000074505806,1.0,252.2222900390625,['q'],0.6282970905303955,b,407.0
modular,409,i,img/target_8.png,4,3,0.05000000074505806,0.0,252.95578002929688,['i'],0.8154640197753906,b,408.0
modular,410,u,img/target_7.png,4,0,0.05000000074505806,1.0,253.8562469482422,['u'],0.4501841068267822,b,409.0
modular,411,r,img/target_4.png,4,1,0.05000000074505806,1.0,254.40643310546875,['r'],0.4678530693054199,b,410.0
modular,412,p,img/target_10.png,4,4,0.05000000074505806,1.0,254.97186279296875,['p'],0.6077139377593994,b,411.0
modular,413,r,img/target_4.png,4,1,0.05000000074505806,1.0,255.67172241210938,['r'],0.5876729488372803,b,412.0
modular,414,i,img/target_8.png,4,3,0.05000000074505806,1.0,256.3560791015625,['i'],0.5742418766021729,b,413.0
modular,415,q,img/target_1.png,4,2,0.05000000074505806,1.0,257.02252197265625,['q'],0.5720338821411133,b,414.0
modular,416,r,img/target_4.png,4,1,0.05000000074505806,1.0,257.6885681152344,['r'],0.3939170837402344,b,415.0
modular,417,i,img/target_8.png,4,3,0.05000000074505806,1.0,258.1725769042969,['i'],0.534113883972168,b,416.0
modular,418,q,img/target_1.png,4,2,0.05000000074505806,1.0,258.852783203125,['q'],0.4693729877471924,b,417.0
modular,419,i,img/target_8.png,4,3,0.05000000074505806,0.0,259.427734375,['i'],0.6547651290893555,b,418.0
modular,420,r,img/target_4.png,4,1,0.05000000074505806,1.0,260.1551208496094,['r'],0.4557509422302246,b,419.0
modular,421,i,img/target_8.png,4,3,0.05000000074505806,0.0,260.70648193359375,['i'],0.6636788845062256,b,420.0
modular,422,p,img/target_10.png,4,4,0.05000000074505806,1.0,261.4556884765625,['p'],0.49918699264526367,b,421.0
modular,423,q,img/target_1.png,4,2,0.05000000074505806,1.0,262.0580749511719,['q'],0.4640369415283203,b,422.0
modular,424,i,img/target_8.png,4,3,0.05000000074505806,1.0,262.6271667480469,['i'],0.5107989311218262,b,423.0
modular,425,p,img/target_10.png,4,4,0.05000000074505806,1.0,263.25665283203125,['p'],0.4096720218658447,b,424.0
modular,426,q,img/target_1.png,4,2,0.05000000074505806,1.0,263.7924499511719,['q'],0.6106030941009521,b,425.0
modular,427,p,img/target_10.png,4,4,0.05000000074505806,1.0,264.5095520019531,['p'],0.5089988708496094,b,426.0
modular,428,b,img/target_6.png,4,5,0.05000000074505806,1.0,265.1258239746094,['b'],0.55588698387146,b,427.0
modular,429,v,img/target_5.png,4,6,0.05000000074505806,1.0,265.7733459472656,['v'],0.4446229934692383,b,428.0
modular,430,b,img/target_6.png,4,5,0.05000000074505806,1.0,266.3235778808594,['b'],0.45556116104125977,b,429.0
modular,431,v,img/target_5.png,4,6,0.05000000074505806,1.0,266.8735656738281,['v'],0.43238210678100586,b,430.0
modular,432,o,img/target_9.png,4,8,0.05000000074505806,1.0,267.4122009277344,['o'],0.6216630935668945,b,431.0
modular,433,v,img/target_5.png,4,6,0.05000000074505806,1.0,268.1268310546875,['v'],0.5229661464691162,b,432.0
modular,434,e,img/target_3.png,4,7,0.05000000074505806,1.0,268.74310302734375,['e'],0.7708051204681396,b,433.0
modular,435,b,img/target_6.png,4,5,0.05000000074505806,1.0,269.6108703613281,['b'],0.5188770294189453,b,434.0
modular,436,e,img/target_3.png,4,7,0.05000000074505806,1.0,270.22412109375,['e'],0.5297329425811768,b,435.0
modular,437,b,img/target_6.png,4,5,0.05000000074505806,1.0,270.8576965332031,['b'],0.48085999488830566,b,436.0
modular,438,e,img/target_3.png,4,7,0.05000000074505806,1.0,271.4397277832031,['e'],0.6750540733337402,b,437.0
modular,439,o,img/target_9.png,4,8,0.05000000074505806,1.0,272.2115783691406,['o'],0.5422499179840088,b,438.0
modular,440,w,img/target_2.png,4,9,0.05000000074505806,1.0,272.8580017089844,['w'],0.6797268390655518,b,439.0
modular,441,e,img/target_3.png,4,7,0.05000000074505806,1.0,273.6413879394531,['e'],0.61611008644104,b,440.0
modular,442,v,img/target_5.png,4,6,0.05000000074505806,1.0,274.3567199707031,['v'],0.42977285385131836,b,441.0
modular,443,o,img/target_9.png,4,8,0.05000000074505806,1.0,274.89453125,['o'],0.7879610061645508,b,442.0
modular,444,v,img/target_5.png,4,6,0.05000000074505806,1.0,275.7916259765625,['v'],0.490602970123291,b,443.0
modular,445,b,img/target_6.png,4,5,0.05000000074505806,1.0,276.37725830078125,['b'],0.48908185958862305,b,444.0
modular,446,v,img/target_5.png,4,6,0.05000000074505806,1.0,276.974365234375,['v'],0.4364500045776367,b,445.0
modular,447,b,img/target_6.png,4,5,0.05000000074505806,1.0,277.50823974609375,['b'],0.3902559280395508,b,446.0
modular,448,v,img/target_5.png,4,6,0.05000000074505806,1.0,277.99102783203125,['v'],0.3309929370880127,b,447.0
modular,449,w,img/target_2.png,4,9,0.05000000074505806,1.0,278.4248046875,['w'],0.593458890914917,b,448.0
modular,450,o,img/target_9.png,4,8,0.05000000074505806,1.0,279.1251525878906,['o'],0.6931979656219482,b,449.0
modular,451,w,img/target_2.png,4,9,0.05000000074505806,1.0,279.9244384765625,['w'],0.7650182247161865,b,450.0
modular,452,o,img/target_9.png,4,8,0.05000000074505806,1.0,280.7935791015625,['o'],0.6479628086090088,b,451.0
modular,453,b,img/target_6.png,4,5,0.05000000074505806,1.0,281.5415344238281,['b'],0.49184703826904297,b,452.0
modular,454,p,img/target_10.png,4,4,0.05000000074505806,1.0,282.1242370605469,['p'],0.6451718807220459,b,453.0
modular,455,r,img/target_4.png,4,1,0.05000000074505806,0.0,282.87799072265625,['r'],0.9312269687652588,b,454.0
modular,456,q,img/target_1.png,4,2,0.05000000074505806,1.0,283.894775390625,['q'],0.6028759479522705,b,455.0
modular,457,i,img/target_8.png,4,3,0.05000000074505806,1.0,284.5919189453125,['i'],0.6344609260559082,b,456.0
modular,458,r,img/target_4.png,4,1,0.05000000074505806,1.0,285.32647705078125,['r'],0.5320098400115967,b,457.0
modular,459,u,img/target_7.png,4,0,0.05000000074505806,1.0,285.95849609375,['u'],0.5148060321807861,b,458.0
modular,460,i,img/target_8.png,4,3,0.05000000074505806,1.0,286.5755615234375,['i'],0.5298099517822266,b,459.0
modular,461,q,img/target_1.png,4,2,0.05000000074505806,1.0,287.2087707519531,['q'],0.4972817897796631,b,460.0
modular,462,u,img/target_7.png,4,0,0.05000000074505806,1.0,287.8114929199219,['u'],0.6304202079772949,b,461.0
modular,463,r,img/target_4.png,4,1,0.05000000074505806,1.0,288.5585021972656,['r'],0.5235040187835693,b,462.0
modular,464,q,img/target_1.png,4,2,0.05000000074505806,1.0,289.17626953125,['q'],0.6006629467010498,b,463.0
modular,465,i,img/target_8.png,4,3,0.05000000074505806,1.0,289.876220703125,['i'],1.085080862045288,b,464.0
modular,466,p,img/target_10.png,4,4,0.05000000074505806,1.0,291.0580749511719,['p'],0.7514638900756836,b,465.0
modular,467,r,img/target_4.png,4,1,0.05000000074505806,1.0,291.9124755859375,['r'],0.5695760250091553,b,466.0
modular,468,u,img/target_7.png,4,0,0.05000000074505806,1.0,292.58013916015625,['u'],0.6130130290985107,b,467.0
modular,469,q,img/target_1.png,4,2,0.05000000074505806,1.0,293.2938232421875,['q'],0.5561449527740479,b,468.0
modular,470,p,img/target_10.png,4,4,0.05000000074505806,1.0,293.9422912597656,['p'],0.5707879066467285,b,469.0
modular,471,r,img/target_4.png,4,1,0.05000000074505806,1.0,294.6103515625,['r'],0.6144781112670898,b,470.0
modular,472,i,img/target_8.png,4,3,0.05000000074505806,1.0,295.325927734375,['i'],0.5949158668518066,b,471.0
modular,473,q,img/target_1.png,4,2,0.05000000074505806,1.0,296.02783203125,['q'],0.6689400672912598,b,472.0
modular,474,u,img/target_7.png,4,0,0.05000000074505806,1.0,296.8109130859375,['u'],0.4709620475769043,b,473.0
modular,475,r,img/target_4.png,4,1,0.05000000074505806,1.0,297.37646484375,['r'],0.41686177253723145,b,474.0
modular,476,q,img/target_1.png,4,2,0.05000000074505806,1.0,297.8932800292969,['q'],0.45233702659606934,b,475.0
modular,477,u,img/target_7.png,4,0,0.05000000074505806,1.0,298.4438171386719,['u'],0.48586297035217285,b,476.0
modular,478,i,img/target_8.png,4,3,0.05000000074505806,1.0,299.0268859863281,['i'],0.5345468521118164,b,477.0
modular,479,r,img/target_4.png,4,1,0.05000000074505806,1.0,299.6759948730469,['r'],0.46990013122558594,b,478.0
modular,480,u,img/target_7.png,4,0,0.05000000074505806,1.0,300.2425231933594,['u'],0.5589778423309326,b,479.0
modular,481,q,img/target_1.png,4,2,0.05000000074505806,1.0,300.9100646972656,['q'],0.4424400329589844,b,480.0
modular,482,u,img/target_7.png,4,0,0.05000000074505806,1.0,301.4433288574219,['u'],0.6938488483428955,b,481.0
modular,483,q,img/target_1.png,4,2,0.05000000074505806,1.0,302.24298095703125,['q'],0.39893603324890137,b,482.0
modular,484,p,img/target_10.png,4,4,0.05000000074505806,1.0,302.74365234375,['p'],0.6487908363342285,b,483.0
modular,485,i,img/target_8.png,4,3,0.05000000074505806,1.0,303.494140625,['i'],0.6106388568878174,b,484.0
modular,486,p,img/target_10.png,4,4,0.05000000074505806,0.0,304.2127990722656,['p'],0.8357949256896973,b,485.0
modular,487,q,img/target_1.png,4,2,0.05000000074505806,1.0,305.12646484375,['q'],0.4108128547668457,b,486.0
modular,488,u,img/target_7.png,4,0,0.05000000074505806,1.0,305.62689208984375,['u'],0.4866619110107422,b,487.0
modular,489,r,img/target_4.png,4,1,0.05000000074505806,1.0,306.21112060546875,['r'],0.35779500007629395,b,488.0
modular,490,p,img/target_10.png,4,4,0.05000000074505806,1.0,306.66064453125,['p'],0.5318548679351807,b,489.0
modular,491,r,img/target_4.png,4,1,0.05000000074505806,1.0,307.294189453125,['r'],0.37065911293029785,b,490.0
modular,492,q,img/target_1.png,4,2,0.05000000074505806,1.0,307.7610168457031,['q'],0.3994572162628174,b,491.0
modular,493,i,img/target_8.png,4,3,0.05000000074505806,1.0,308.2601013183594,['i'],0.556556224822998,b,492.0
modular,494,u,img/target_7.png,4,0,0.05000000074505806,1.0,308.9110107421875,['u'],0.44252896308898926,b,493.0
modular,495,q,img/target_1.png,4,2,0.05000000074505806,1.0,309.4605407714844,['q'],0.41233301162719727,b,494.0
modular,496,u,img/target_7.png,4,0,0.05000000074505806,1.0,309.98248291015625,['u'],0.4819059371948242,b,495.0
modular,497,i,img/target_8.png,4,3,0.05000000074505806,1.0,310.5652770996094,['i'],0.371845006942749,b,496.0
modular,498,u,img/target_7.png,4,0,0.05000000074505806,1.0,311.0435485839844,['u'],0.3649930953979492,b,497.0
modular,499,r,img/target_4.png,4,1,0.05000000074505806,1.0,311.51031494140625,['r'],0.3458728790283203,b,498.0
modular,500,p,img/target_10.png,4,4,0.05000000074505806,1.0,311.9602966308594,['p'],0.49704504013061523,b,499.0
modular,501,q,img/target_1.png,4,2,0.05000000074505806,1.0,312.5604553222656,['q'],0.4483761787414551,b,500.0
modular,502,u,img/target_7.png,4,0,0.05000000074505806,1.0,313.1105651855469,['u'],0.5697171688079834,b,501.0
modular,503,i,img/target_8.png,4,3,0.05000000074505806,1.0,313.7781677246094,['i'],0.3503880500793457,b,502.0
modular,504,r,img/target_4.png,4,1,0.05000000074505806,1.0,314.2279357910156,['r'],0.34829115867614746,b,503.0
modular,505,u,img/target_7.png,4,0,0.05000000074505806,1.0,314.6782531738281,['u'],0.3626859188079834,b,504.0
modular,506,q,img/target_1.png,4,2,0.05000000074505806,1.0,315.14501953125,['q'],0.4404869079589844,b,505.0
modular,507,i,img/target_8.png,4,3,0.05000000074505806,1.0,315.6778869628906,['i'],0.5630800724029541,b,506.0
modular,508,r,img/target_4.png,4,1,0.05000000074505806,1.0,316.344970703125,['r'],0.38300085067749023,b,507.0
modular,509,p,img/target_10.png,4,4,0.05000000074505806,1.0,316.8284912109375,['p'],0.43588805198669434,b,508.0
modular,510,i,img/target_8.png,4,3,0.05000000074505806,0.0,317.3665466308594,['i'],0.6181039810180664,b,509.0
modular,511,r,img/target_4.png,4,1,0.05000000074505806,1.0,318.0621032714844,['r'],0.4031071662902832,b,510.0
modular,512,q,img/target_1.png,4,2,0.05000000074505806,1.0,318.5621643066406,['q'],0.41444897651672363,b,511.0
modular,513,i,img/target_8.png,4,3,0.05000000074505806,1.0,319.0789794921875,['i'],0.5137128829956055,b,512.0
modular,514,p,img/target_10.png,4,4,0.05000000074505806,1.0,319.6947326660156,['p'],0.39435696601867676,b,513.0
modular,515,q,img/target_1.png,4,2,0.05000000074505806,1.0,320.1959533691406,['q'],0.4607839584350586,b,514.0
modular,516,p,img/target_10.png,4,4,0.05000000074505806,1.0,320.7611083984375,['p'],0.5274810791015625,b,515.0
modular,517,q,img/target_1.png,4,2,0.05000000074505806,1.0,321.3950500488281,['q'],0.4453918933868408,b,516.0
modular,518,p,img/target_10.png,4,4,0.05000000074505806,1.0,321.944580078125,['p'],0.4873189926147461,b,517.0
modular,519,q,img/target_1.png,4,2,0.05000000074505806,1.0,322.5279541015625,['q'],0.4327218532562256,b,518.0
modular,520,r,img/target_4.png,4,1,0.05000000074505806,1.0,323.0626525878906,['r'],0.4501640796661377,b,519.0
modular,521,q,img/target_1.png,4,2,0.05000000074505806,1.0,323.61273193359375,['q'],0.3083209991455078,b,520.0
modular,522,u,img/target_7.png,4,0,0.05000000074505806,1.0,324.0296630859375,['u'],0.4347219467163086,b,521.0
modular,523,q,img/target_1.png,4,2,0.05000000074505806,1.0,324.56158447265625,['q'],0.3514881134033203,b,522.0
modular,524,r,img/target_4.png,4,1,0.05000000074505806,1.0,325.0126037597656,['r'],0.34729814529418945,b,523.0
modular,525,i,img/target_8.png,4,3,0.05000000074505806,1.0,325.4616394042969,['i'],0.47510313987731934,b,524.0
modular,526,q,img/target_1.png,4,2,0.05000000074505806,1.0,326.029541015625,['q'],0.5071630477905273,b,525.0
modular,527,i,img/target_8.png,4,3,0.05000000074505806,1.0,326.62921142578125,['i'],0.5874338150024414,b,526.0
modular,528,q,img/target_1.png,4,2,0.05000000074505806,1.0,327.31298828125,['q'],0.3995800018310547,b,527.0
modular,529,r,img/target_4.png,4,1,0.05000000074505806,1.0,327.8116760253906,['r'],0.40404319763183594,b,528.0
modular,530,p,img/target_10.png,4,4,0.05000000074505806,1.0,328.3131408691406,['p'],0.48748016357421875,b,529.0
modular,531,b,img/target_6.png,4,5,0.05000000074505806,1.0,328.9128112792969,['b'],0.6467111110687256,b,530.0
modular,532,e,img/target_3.png,4,7,0.05000000074505806,1.0,329.6623229980469,['e'],0.5704240798950195,b,531.0
modular,533,b,img/target_6.png,4,5,0.05000000074505806,1.0,330.3296813964844,['b'],0.40601015090942383,b,532.0
modular,534,v,img/target_5.png,4,6,0.05000000074505806,1.0,330.8292236328125,['v'],0.44243597984313965,b,533.0
modular,535,b,img/target_6.png,4,5,0.05000000074505806,1.0,331.36798095703125,['b'],0.4086039066314697,b,534.0
modular,536,p,img/target_10.png,4,4,0.05000000074505806,1.0,331.8799743652344,['p'],0.42382192611694336,b,535.0
modular,537,r,img/target_4.png,4,1,0.05000000074505806,1.0,332.3961181640625,['r'],0.5962860584259033,b,536.0
modular,538,u,img/target_7.png,4,0,0.05000000074505806,1.0,333.0956115722656,['u'],0.5442619323730469,b,537.0
modular,539,i,img/target_8.png,4,3,0.05000000074505806,1.0,333.7469177246094,['i'],0.5406630039215088,b,538.0
modular,540,u,img/target_7.png,4,0,0.05000000074505806,1.0,334.37994384765625,['u'],0.37995195388793945,b,539.0
modular,541,q,img/target_1.png,4,2,0.05000000074505806,1.0,334.8637390136719,['q'],0.41677117347717285,b,540.0
modular,542,p,img/target_10.png,4,4,0.05000000074505806,1.0,335.3794860839844,['p'],0.47631001472473145,b,541.0
modular,543,i,img/target_8.png,4,3,0.05000000074505806,1.0,335.9469299316406,['i'],0.596714973449707,b,542.0
modular,544,p,img/target_10.png,4,4,0.05000000074505806,1.0,336.64697265625,['p'],0.4325439929962158,b,543.0
modular,545,b,img/target_6.png,4,5,0.05000000074505806,1.0,337.17938232421875,['b'],0.4441971778869629,b,544.0
modular,546,o,img/target_9.png,4,8,0.05000000074505806,1.0,337.7349548339844,['o'],0.593101978302002,b,545.0
modular,547,w,img/target_2.png,4,9,0.05000000074505806,1.0,338.4294128417969,['w'],0.6259539127349854,b,546.0
modular,548,v,img/target_5.png,4,6,0.05000000074505806,1.0,339.14764404296875,['v'],0.3797459602355957,b,547.0
modular,549,o,img/target_9.png,4,8,0.05000000074505806,1.0,339.6343078613281,['o'],0.669044017791748,b,548.0
modular,550,e,img/target_3.png,4,7,0.05000000074505806,1.0,340.39739990234375,['e'],0.6826930046081543,b,549.0
modular,551,w,img/target_2.png,4,9,0.05000000074505806,1.0,341.180908203125,['w'],0.4191410541534424,b,550.0
modular,552,u,img/target_7.png,4,0,0.05000000074505806,1.0,341.6974182128906,['u'],0.47793102264404297,b,551.0
modular,553,r,img/target_4.png,4,1,0.05000000074505806,1.0,342.27978515625,['r'],0.46377110481262207,b,552.0
modular,554,q,img/target_1.png,4,2,0.05000000074505806,1.0,342.8480224609375,['q'],0.44790196418762207,b,553.0
modular,555,p,img/target_10.png,4,4,0.05000000074505806,1.0,343.3977966308594,['p'],0.42544007301330566,b,554.0
modular,556,r,img/target_4.png,4,1,0.05000000074505806,1.0,343.9146728515625,['r'],0.3486368656158447,b,555.0
modular,557,p,img/target_10.png,4,4,0.05000000074505806,1.0,344.3646240234375,['p'],0.49141907691955566,b,556.0
modular,558,r,img/target_4.png,4,1,0.05000000074505806,1.0,344.966796875,['r'],0.48923301696777344,b,557.0
modular,559,p,img/target_10.png,4,4,0.05000000074505806,1.0,345.56365966796875,['p'],0.4682650566101074,b,558.0
modular,560,b,img/target_6.png,4,5,0.05000000074505806,1.0,346.13592529296875,['b'],0.47216200828552246,b,559.0
modular,561,v,img/target_5.png,4,6,0.05000000074505806,1.0,346.7135925292969,['v'],0.31040310859680176,b,560.0
modular,562,e,img/target_3.png,4,7,0.05000000074505806,1.0,347.1304626464844,['e'],0.5813660621643066,b,561.0
modular,563,w,img/target_2.png,4,9,0.05000000074505806,1.0,347.81634521484375,['w'],0.40783190727233887,b,562.0
modular,564,u,img/target_7.png,4,0,0.05000000074505806,1.0,348.3358154296875,['u'],0.5521600246429443,b,563.0
modular,565,i,img/target_8.png,4,3,0.05000000074505806,1.0,348.985107421875,['i'],0.3982110023498535,b,564.0
modular,566,r,img/target_4.png,4,1,0.05000000074505806,1.0,349.48138427734375,['r'],0.43854188919067383,b,565.0
modular,567,p,img/target_10.png,4,4,0.05000000074505806,1.0,350.01434326171875,['p'],0.5135650634765625,b,566.0
modular,568,b,img/target_6.png,4,5,0.05000000074505806,1.0,350.6352233886719,['b'],0.356536865234375,b,567.0
modular,569,v,img/target_5.png,4,6,0.05000000074505806,1.0,351.098388671875,['v'],0.3089900016784668,b,568.0
modular,570,w,img/target_2.png,4,9,0.05000000074505806,1.0,351.4971923828125,['w'],0.6221740245819092,b,569.0
modular,571,v,img/target_5.png,4,6,0.05000000074505806,1.0,352.2186584472656,['v'],0.4045279026031494,b,570.0
modular,572,o,img/target_9.png,4,8,0.05000000074505806,1.0,352.7142639160156,['o'],0.48459410667419434,b,571.0
modular,573,e,img/target_3.png,4,7,0.05000000074505806,1.0,353.2989501953125,['e'],0.6520819664001465,b,572.0
modular,574,o,img/target_9.png,4,8,0.05000000074505806,1.0,354.0489196777344,['o'],0.5182690620422363,b,573.0
modular,575,v,img/target_5.png,4,6,0.05000000074505806,1.0,354.6650085449219,['v'],0.33480286598205566,b,574.0
modular,576,o,img/target_9.png,4,8,0.05000000074505806,1.0,355.09765625,['o'],0.4854259490966797,b,575.0
modular,577,e,img/target_3.png,4,7,0.05000000074505806,1.0,355.6825866699219,['e'],0.4771270751953125,b,576.0
modular,578,w,img/target_2.png,4,9,0.05000000074505806,1.0,356.2660217285156,['w'],0.42911195755004883,b,577.0
modular,579,v,img/target_5.png,4,6,0.05000000074505806,1.0,356.80352783203125,['v'],0.3792140483856201,b,578.0
modular,580,e,img/target_3.png,4,7,0.05000000074505806,1.0,357.2820129394531,['e'],0.5088620185852051,b,579.0
modular,581,o,img/target_9.png,4,8,0.05000000074505806,1.0,357.8824462890625,['o'],0.508253812789917,b,580.0
modular,582,v,img/target_5.png,4,6,0.05000000074505806,1.0,358.4848327636719,['v'],0.3222479820251465,b,581.0
modular,583,w,img/target_2.png,4,9,0.05000000074505806,1.0,358.89910888671875,['w'],0.47556114196777344,b,582.0
modular,584,o,img/target_9.png,4,8,0.05000000074505806,1.0,359.46612548828125,['o'],0.5087120532989502,b,583.0
modular,585,e,img/target_3.png,4,7,0.05000000074505806,1.0,360.0670166015625,['e'],0.6518230438232422,b,584.0
modular,586,o,img/target_9.png,4,8,0.05000000074505806,1.0,360.8165283203125,['o'],0.598870038986206,b,585.0
modular,587,v,img/target_5.png,4,6,0.05000000074505806,1.0,361.5371398925781,['v'],0.4538571834564209,b,586.0
modular,588,e,img/target_3.png,4,7,0.05000000074505806,1.0,362.0850524902344,['e'],0.553541898727417,b,587.0
modular,589,o,img/target_9.png,4,8,0.05000000074505806,1.0,362.75439453125,['o'],0.40492916107177734,b,588.0
modular,590,v,img/target_5.png,4,6,0.05000000074505806,1.0,363.2682800292969,['v'],0.3704519271850586,b,589.0
modular,591,b,img/target_6.png,4,5,0.05000000074505806,1.0,363.73358154296875,['b'],0.3858468532562256,b,590.0
modular,592,p,img/target_10.png,4,4,0.05000000074505806,1.0,364.2164611816406,['p'],0.5268490314483643,b,591.0
modular,593,r,img/target_4.png,4,1,0.05000000074505806,1.0,364.8487243652344,['r'],0.6537430286407471,b,592.0
modular,594,i,img/target_8.png,4,3,0.05000000074505806,0.0,365.6026611328125,['i'],0.6520400047302246,b,593.0
modular,595,u,img/target_7.png,4,0,0.05000000074505806,1.0,366.3392028808594,['u'],0.459989070892334,b,594.0
modular,596,i,img/target_8.png,4,3,0.05000000074505806,1.0,366.8992919921875,['i'],0.5313291549682617,b,595.0
modular,597,q,img/target_1.png,4,2,0.05000000074505806,1.0,367.53668212890625,['q'],0.573523998260498,b,596.0
modular,598,r,img/target_4.png,4,1,0.05000000074505806,1.0,368.201904296875,['r'],0.4217338562011719,b,597.0
modular,599,q,img/target_1.png,4,2,0.05000000074505806,1.0,368.72119140625,['q'],0.3493521213531494,b,598.0
modular,600,u,img/target_7.png,4,0,0.05000000074505806,1.0,369.1661376953125,['u'],0.5443079471588135,b,599.0
modular,601,r,img/target_4.png,4,1,0.05000000074505806,1.0,369.8329772949219,['r'],0.46202611923217773,b,600.0
modular,602,p,img/target_10.png,4,4,0.05000000074505806,1.0,370.40643310546875,['p'],0.4407060146331787,b,601.0
modular,603,r,img/target_4.png,4,1,0.05000000074505806,1.0,370.94952392578125,['r'],0.32119202613830566,b,602.0
modular,604,q,img/target_1.png,4,2,0.05000000074505806,1.0,371.3669738769531,['q'],0.4878089427947998,b,603.0
modular,605,p,img/target_10.png,4,4,0.05000000074505806,1.0,371.9519348144531,['p'],0.718472957611084,b,604.0
modular,606,r,img/target_4.png,4,1,0.05000000074505806,1.0,372.7718811035156,['r'],0.41027188301086426,b,605.0
modular,607,i,img/target_8.png,4,3,0.05000000074505806,1.0,373.2839050292969,['i'],0.6429898738861084,b,606.0
modular,608,p,img/target_10.png,4,4,0.05000000074505806,1.0,374.0367736816406,['p'],0.5772271156311035,b,607.0
modular,609,i,img/target_8.png,4,3,0.05000000074505806,1.0,374.72076416015625,['i'],0.5819809436798096,b,608.0
modular,610,q,img/target_1.png,4,2,0.05000000074505806,1.0,375.4007873535156,['q'],0.42927002906799316,b,609.0
modular,611,r,img/target_4.png,4,1,0.05000000074505806,1.0,375.9369812011719,['r'],0.429063081741333,b,610.0
modular,612,u,img/target_7.png,4,0,0.05000000074505806,1.0,376.46783447265625,['u'],0.6108660697937012,b,611.0
modular,613,q,img/target_1.png,4,2,0.05000000074505806,1.0,377.1833801269531,['q'],0.5916478633880615,b,612.0
modular,614,u,img/target_7.png,4,0,0.05000000074505806,1.0,377.8674011230469,['u'],0.41932010650634766,b,613.0
modular,615,r,img/target_4.png,4,1,0.05000000074505806,1.0,378.38409423828125,['r'],0.4385039806365967,b,614.0
modular,616,q,img/target_1.png,4,2,0.05000000074505806,1.0,378.91741943359375,['q'],0.5124490261077881,b,615.0
modular,617,i,img/target_8.png,4,3,0.05000000074505806,1.0,379.536376953125,['i'],0.5742690563201904,b,616.0
modular,618,q,img/target_1.png,4,2,0.05000000074505806,1.0,380.21771240234375,['q'],0.4920649528503418,b,617.0
modular,619,p,img/target_10.png,4,4,0.05000000074505806,1.0,380.8009338378906,['p'],1.069342851638794,b,618.0
modular,620,r,img/target_4.png,4,1,0.05000000074505806,1.0,381.96826171875,['r'],0.30962491035461426,b,619.0
modular,621,u,img/target_7.png,4,0,0.05000000074505806,1.0,382.36859130859375,['u'],0.38184094429016113,b,620.0
modular,622,r,img/target_4.png,4,1,0.05000000074505806,1.0,382.8514099121094,['r'],0.330402135848999,b,621.0
modular,623,u,img/target_7.png,4,0,0.05000000074505806,1.0,383.28521728515625,['u'],0.34507179260253906,b,622.0
modular,624,r,img/target_4.png,4,1,0.05000000074505806,1.0,383.73486328125,['r'],0.37580108642578125,b,623.0
modular,625,q,img/target_1.png,4,2,0.05000000074505806,1.0,384.2017517089844,['q'],0.48459696769714355,b,624.0
modular,626,r,img/target_4.png,4,1,0.05000000074505806,1.0,384.78643798828125,['r'],0.30814409255981445,b,625.0
modular,627,i,img/target_8.png,4,3,0.05000000074505806,1.0,385.2013854980469,['i'],0.46839404106140137,b,626.0
modular,628,p,img/target_10.png,4,4,0.05000000074505806,0.0,385.7685241699219,['p'],0.6615149974822998,b,627.0
modular,629,b,img/target_6.png,4,5,0.05000000074505806,1.0,386.5175476074219,['b'],0.4803450107574463,b,628.0
modular,630,v,img/target_5.png,4,6,0.05000000074505806,0.0,387.10198974609375,['v'],0.6317918300628662,b,629.0
modular,631,b,img/target_6.png,4,5,0.05000000074505806,1.0,387.8185729980469,['b'],0.42693090438842773,b,630.0
modular,632,v,img/target_5.png,4,6,0.05000000074505806,1.0,388.3558654785156,['v'],0.3618478775024414,b,631.0
modular,633,b,img/target_6.png,4,5,0.05000000074505806,1.0,388.821044921875,['b'],0.36136698722839355,b,632.0
modular,634,e,img/target_3.png,4,7,0.05000000074505806,0.0,389.2856750488281,['e'],0.6480600833892822,b,633.0
modular,635,w,img/target_2.png,4,9,0.05000000074505806,1.0,390.0197448730469,['w'],0.46643900871276855,b,634.0
modular,636,v,img/target_5.png,4,6,0.05000000074505806,1.0,390.58935546875,['v'],0.4560370445251465,b,635.0
modular,637,b,img/target_6.png,4,5,0.05000000074505806,0.0,391.13690185546875,['b'],0.6053330898284912,b,636.0
modular,638,e,img/target_3.png,4,7,0.05000000074505806,0.0,391.8195495605469,['e'],0.8899350166320801,b,637.0
modular,639,w,img/target_2.png,4,9,0.05000000074505806,1.0,392.78485107421875,['w'],0.49343085289001465,b,638.0
modular,640,e,img/target_3.png,4,7,0.05000000074505806,1.0,393.3870544433594,['e'],0.33929920196533203,b,639.0
modular,641,b,img/target_6.png,4,5,0.05000000074505806,1.0,393.821533203125,['b'],0.45595288276672363,b,640.0
modular,642,e,img/target_3.png,4,7,0.05000000074505806,1.0,394.3688049316406,['e'],0.46973204612731934,b,641.0
modular,643,b,img/target_6.png,4,5,0.05000000074505806,1.0,394.93853759765625,['b'],0.43491101264953613,b,642.0
modular,644,v,img/target_5.png,4,6,0.05000000074505806,1.0,395.4688415527344,['v'],0.4811379909515381,b,643.0
modular,645,b,img/target_6.png,4,5,0.05000000074505806,1.0,396.0560302734375,['b'],0.4455089569091797,b,644.0
modular,646,e,img/target_3.png,4,7,0.05000000074505806,1.0,396.6187438964844,['e'],0.46685194969177246,b,645.0
modular,647,b,img/target_6.png,4,5,0.05000000074505806,1.0,397.1897277832031,['b'],0.5125739574432373,b,646.0
modular,648,e,img/target_3.png,4,7,0.05000000074505806,1.0,397.8067321777344,['e'],0.43871188163757324,b,647.0
modular,649,b,img/target_6.png,4,5,0.05000000074505806,1.0,398.3394470214844,['b'],0.45002007484436035,b,648.0
modular,650,p,img/target_10.png,4,4,0.05000000074505806,1.0,398.8864440917969,['p'],0.5670170783996582,b,649.0
modular,651,q,img/target_1.png,4,2,0.05000000074505806,1.0,399.55548095703125,['q'],0.5627768039703369,b,650.0
modular,652,r,img/target_4.png,4,1,0.05000000074505806,1.0,400.237060546875,['r'],0.5451211929321289,b,651.0
modular,653,p,img/target_10.png,4,4,0.05000000074505806,1.0,400.8871154785156,['p'],0.5512499809265137,b,652.0
modular,654,b,img/target_6.png,4,5,0.05000000074505806,1.0,401.5397644042969,['b'],0.4975137710571289,b,653.0
modular,655,o,img/target_9.png,4,8,0.05000000074505806,1.0,402.1358947753906,['o'],0.6773838996887207,b,654.0
modular,656,w,img/target_2.png,4,9,0.05000000074505806,0.0,402.9264221191406,['w'],0.591188907623291,b,655.0
modular,657,e,img/target_3.png,4,7,0.05000000074505806,1.0,403.6054992675781,['e'],0.5038018226623535,b,656.0
modular,658,b,img/target_6.png,4,5,0.05000000074505806,1.0,404.22412109375,['b'],0.42142391204833984,b,657.0
modular,659,v,img/target_5.png,4,6,0.05000000074505806,1.0,404.7358093261719,['v'],0.4851961135864258,b,658.0
modular,660,e,img/target_3.png,4,7,0.05000000074505806,1.0,405.3198547363281,['e'],0.4220099449157715,b,659.0
modular,661,b,img/target_6.png,4,5,0.05000000074505806,1.0,405.8373107910156,['b'],0.42467498779296875,b,660.0
modular,662,o,img/target_9.png,4,8,0.05000000074505806,1.0,406.3704833984375,['o'],0.6427628993988037,b,661.0
modular,663,w,img/target_2.png,4,9,0.05000000074505806,1.0,407.10791015625,['w'],0.4423210620880127,b,662.0
modular,664,u,img/target_7.png,4,0,0.05000000074505806,1.0,407.6571960449219,['u'],0.5564861297607422,b,663.0
modular,665,q,img/target_1.png,4,2,0.05000000074505806,1.0,408.32177734375,['q'],0.4360189437866211,b,664.0
modular,666,p,img/target_10.png,4,4,0.05000000074505806,1.0,408.85406494140625,['p'],0.5108160972595215,b,665.0
modular,667,b,img/target_6.png,4,5,0.05000000074505806,1.0,409.4874267578125,['b'],0.40625691413879395,b,666.0
modular,668,p,img/target_10.png,4,4,0.05000000074505806,1.0,409.9872131347656,['p'],0.5298118591308594,b,667.0
modular,669,q,img/target_1.png,4,2,0.05000000074505806,1.0,410.6368713378906,['q'],0.47261786460876465,b,668.0
modular,670,i,img/target_8.png,4,3,0.05000000074505806,0.0,411.2066650390625,['i'],0.8787879943847656,b,669.0
modular,671,q,img/target_1.png,4,2,0.05000000074505806,1.0,412.17010498046875,['q'],0.475862979888916,b,670.0
modular,672,i,img/target_8.png,4,3,0.05000000074505806,1.0,412.758544921875,['i'],0.5826618671417236,b,671.0
modular,673,u,img/target_7.png,4,0,0.05000000074505806,0.0,413.4380798339844,['u'],0.694929838180542,b,672.0
modular,674,i,img/target_8.png,4,3,0.05000000074505806,1.0,414.2201843261719,['i'],0.6245059967041016,b,673.0
modular,675,r,img/target_4.png,4,1,0.05000000074505806,1.0,414.9378662109375,['r'],0.8838009834289551,b,674.0
modular,676,q,img/target_1.png,4,2,0.05000000074505806,1.0,415.9208984375,['q'],0.811859130859375,b,675.0
modular,677,u,img/target_7.png,4,0,0.05000000074505806,1.0,416.8380126953125,['u'],0.4556901454925537,b,676.0
modular,678,i,img/target_8.png,4,3,0.05000000074505806,1.0,417.3872985839844,['i'],0.4651529788970947,b,677.0
modular,679,r,img/target_4.png,4,1,0.05000000074505806,1.0,417.9548034667969,['r'],0.457672119140625,b,678.0
modular,680,u,img/target_7.png,4,0,0.05000000074505806,1.0,418.5047302246094,['u'],0.37238001823425293,b,679.0
modular,681,r,img/target_4.png,4,1,0.05000000074505806,1.0,418.9715270996094,['r'],0.43308091163635254,b,680.0
modular,682,u,img/target_7.png,4,0,0.05000000074505806,1.0,419.52227783203125,['u'],0.3225131034851074,b,681.0
modular,683,i,img/target_8.png,4,3,0.05000000074505806,1.0,419.940673828125,['i'],0.47271013259887695,b,682.0
modular,684,q,img/target_1.png,4,2,0.05000000074505806,1.0,420.520751953125,['q'],0.48416805267333984,b,683.0
modular,685,u,img/target_7.png,4,0,0.05000000074505806,1.0,421.1046447753906,['u'],0.35669517517089844,b,684.0
modular,686,r,img/target_4.png,4,1,0.05000000074505806,1.0,421.5568542480469,['r'],0.43234992027282715,b,685.0
modular,687,q,img/target_1.png,4,2,0.05000000074505806,1.0,422.0873718261719,['q'],0.48508191108703613,b,686.0
modular,688,i,img/target_8.png,4,3,0.05000000074505806,1.0,422.6719665527344,['i'],0.41338586807250977,b,687.0
modular,689,q,img/target_1.png,4,2,0.05000000074505806,1.0,423.18792724609375,['q'],0.4886131286621094,b,688.0
modular,690,p,img/target_10.png,4,4,0.05000000074505806,1.0,423.7722473144531,['p'],0.5048000812530518,b,689.0
modular,691,q,img/target_1.png,4,2,0.05000000074505806,1.0,424.3719177246094,['q'],0.4882681369781494,b,690.0
modular,692,i,img/target_8.png,4,3,0.05000000074505806,1.0,424.9552307128906,['i'],0.5541880130767822,b,691.0
modular,693,p,img/target_10.png,4,4,0.05000000074505806,1.0,425.6046142578125,['p'],0.4246211051940918,b,692.0
modular,694,b,img/target_6.png,4,5,0.05000000074505806,1.0,426.12188720703125,['b'],0.5790698528289795,b,693.0
modular,695,o,img/target_9.png,4,8,0.05000000074505806,1.0,426.80609130859375,['o'],0.6621780395507812,b,694.0
modular,696,v,img/target_5.png,4,6,0.05000000074505806,1.0,427.5725402832031,['v'],0.43995189666748047,b,695.0
modular,697,b,img/target_6.png,4,5,0.05000000074505806,1.0,428.1046447753906,['b'],0.4765279293060303,b,696.0
modular,698,v,img/target_5.png,4,6,0.05000000074505806,1.0,428.6892395019531,['v'],0.3397691249847412,b,697.0
modular,699,e,img/target_3.png,4,7,0.05000000074505806,1.0,429.1227111816406,['e'],0.6415829658508301,b,698.0
modular,700,o,img/target_9.png,4,8,0.05000000074505806,1.0,429.855712890625,['o'],0.509270191192627,b,699.0
modular,701,b,img/target_6.png,4,5,0.05000000074505806,1.0,430.47259521484375,['b'],0.44365692138671875,b,700.0
modular,702,v,img/target_5.png,4,6,0.05000000074505806,1.0,431.00531005859375,['v'],0.35096287727355957,b,701.0
modular,703,e,img/target_3.png,4,7,0.05000000074505806,1.0,431.45599365234375,['e'],0.5011990070343018,b,702.0
modular,704,o,img/target_9.png,4,8,0.05000000074505806,1.0,432.0550231933594,['o'],0.509742021560669,b,703.0
modular,705,b,img/target_6.png,4,5,0.05000000074505806,1.0,432.67279052734375,['b'],0.4274001121520996,b,704.0
modular,706,e,img/target_3.png,4,7,0.05000000074505806,1.0,433.1894836425781,['e'],0.6464700698852539,b,705.0
modular,707,b,img/target_6.png,4,5,0.05000000074505806,1.0,433.93988037109375,['b'],0.4482541084289551,b,706.0
modular,708,v,img/target_5.png,4,6,0.05000000074505806,1.0,434.5069580078125,['v'],0.34622907638549805,b,707.0
modular,709,e,img/target_3.png,4,7,0.05000000074505806,1.0,434.9573974609375,['e'],0.49570298194885254,b,708.0
modular,710,b,img/target_6.png,4,5,0.05000000074505806,1.0,435.55560302734375,['b'],0.47338414192199707,b,709.0
modular,711,v,img/target_5.png,4,6,0.05000000074505806,1.0,436.122802734375,['v'],0.3771350383758545,b,710.0
modular,712,o,img/target_9.png,4,8,0.05000000074505806,1.0,436.5896911621094,['o'],0.4704618453979492,b,711.0
modular,713,e,img/target_3.png,4,7,0.05000000074505806,1.0,437.1565856933594,['e'],0.6321561336517334,b,712.0
modular,714,w,img/target_2.png,4,9,0.05000000074505806,1.0,437.8892517089844,['w'],0.3707699775695801,b,713.0
modular,715,e,img/target_3.png,4,7,0.05000000074505806,1.0,438.3563232421875,['e'],0.3997030258178711,b,714.0
modular,716,o,img/target_9.png,4,8,0.05000000074505806,1.0,438.8569641113281,['o'],0.45879101753234863,b,715.0
modular,717,v,img/target_5.png,4,6,0.05000000074505806,1.0,439.4059143066406,['v'],0.5339250564575195,b,716.0
modular,718,o,img/target_9.png,4,8,0.05000000074505806,1.0,440.0392761230469,['o'],0.43717217445373535,b,717.0
modular,719,w,img/target_2.png,4,9,0.05000000074505806,1.0,440.57257080078125,['w'],0.7510948181152344,b,718.0
modular,720,u,img/target_7.png,4,0,0.05000000074505806,1.0,441.4246520996094,['u'],0.6832811832427979,b,719.0
modular,721,r,img/target_4.png,4,1,0.05000000074505806,1.0,442.20684814453125,['r'],0.38118886947631836,b,720.0
modular,722,q,img/target_1.png,4,2,0.05000000074505806,1.0,442.690673828125,['q'],0.49730896949768066,b,721.0
modular,723,i,img/target_8.png,4,3,0.05000000074505806,1.0,443.2904357910156,['i'],0.5539422035217285,b,722.0
modular,724,q,img/target_1.png,4,2,0.05000000074505806,1.0,443.9613037109375,['q'],0.4272160530090332,b,723.0
modular,725,r,img/target_4.png,4,1,0.05000000074505806,1.0,444.4903869628906,['r'],0.4492800235748291,b,724.0
modular,726,q,img/target_1.png,4,2,0.05000000074505806,1.0,445.0396423339844,['q'],0.4600040912628174,b,725.0
modular,727,u,img/target_7.png,4,0,0.05000000074505806,1.0,445.59039306640625,['u'],0.5338571071624756,b,726.0
modular,728,q,img/target_1.png,4,2,0.05000000074505806,1.0,446.22406005859375,['q'],0.4362509250640869,b,727.0
modular,729,i,img/target_8.png,4,3,0.05000000074505806,1.0,446.7565612792969,['i'],0.5830490589141846,b,728.0
modular,730,q,img/target_1.png,4,2,0.05000000074505806,1.0,447.4397277832031,['q'],0.40388989448547363,b,729.0
modular,731,u,img/target_7.png,4,0,0.05000000074505806,1.0,447.94097900390625,['u'],0.4550211429595947,b,730.0
modular,732,w,img/target_2.png,4,9,0.05000000074505806,0.0,448.490966796875,['w'],0.6405448913574219,b,731.0
modular,733,o,img/target_9.png,4,8,0.05000000074505806,1.0,449.20709228515625,['o'],0.48546314239501953,b,732.0
modular,734,w,img/target_2.png,4,9,0.05000000074505806,0.0,449.79052734375,['w'],0.6298630237579346,b,733.0
modular,735,v,img/target_5.png,4,6,0.05000000074505806,1.0,450.507080078125,['v'],0.47235608100891113,b,734.0
modular,736,o,img/target_9.png,4,8,0.05000000074505806,1.0,451.0911560058594,['o'],0.4406471252441406,b,735.0
modular,737,e,img/target_3.png,4,7,0.05000000074505806,1.0,451.6242370605469,['e'],0.5394799709320068,b,736.0
modular,738,w,img/target_2.png,4,9,0.05000000074505806,1.0,452.2582092285156,['w'],0.609062910079956,b,737.0
modular,739,v,img/target_5.png,4,6,0.05000000074505806,1.0,452.9582824707031,['v'],0.42145800590515137,b,738.0
modular,740,w,img/target_2.png,4,9,0.05000000074505806,1.0,453.475341796875,['w'],0.4810810089111328,b,739.0
modular,741,e,img/target_3.png,4,7,0.05000000074505806,1.0,454.05828857421875,['e'],0.5054020881652832,b,740.0
modular,742,o,img/target_9.png,4,8,0.05000000074505806,1.0,454.658447265625,['o'],0.47364377975463867,b,741.0
modular,743,b,img/target_6.png,4,5,0.05000000074505806,1.0,455.22467041015625,['b'],0.44351696968078613,b,742.0
modular,744,o,img/target_9.png,4,8,0.05000000074505806,1.0,455.77398681640625,['o'],0.549140214920044,b,743.0
modular,745,b,img/target_6.png,4,5,0.05000000074505806,1.0,456.423828125,['b'],0.4202110767364502,b,744.0
modular,746,e,img/target_3.png,4,7,0.05000000074505806,1.0,456.9412841796875,['e'],0.43905091285705566,b,745.0
modular,747,w,img/target_2.png,4,9,0.05000000074505806,1.0,457.4748840332031,['w'],0.3603038787841797,b,746.0
modular,748,e,img/target_3.png,4,7,0.05000000074505806,1.0,457.9247131347656,['e'],0.4144420623779297,b,747.0
modular,749,o,img/target_9.png,4,8,0.05000000074505806,1.0,458.4410095214844,['o'],0.6421530246734619,b,748.0
modular,750,v,img/target_5.png,4,6,0.05000000074505806,1.0,459.17535400390625,['v'],0.3408651351928711,b,749.0
modular,751,e,img/target_3.png,4,7,0.05000000074505806,1.0,459.60894775390625,['e'],0.6347370147705078,b,750.0
modular,752,v,img/target_5.png,4,6,0.05000000074505806,1.0,460.3412780761719,['v'],0.46179890632629395,b,751.0
modular,753,e,img/target_3.png,4,7,0.05000000074505806,1.0,460.9081115722656,['e'],0.5837900638580322,b,752.0
modular,754,v,img/target_5.png,4,6,0.05000000074505806,1.0,461.5911865234375,['v'],0.5808877944946289,b,753.0
modular,755,o,img/target_9.png,4,8,0.05000000074505806,1.0,462.2746887207031,['o'],0.504565954208374,b,754.0
modular,756,b,img/target_6.png,4,5,0.05000000074505806,1.0,462.87579345703125,['b'],0.5041439533233643,b,755.0
modular,757,v,img/target_5.png,4,6,0.05000000074505806,1.0,463.47601318359375,['v'],0.43947386741638184,b,756.0
modular,758,w,img/target_2.png,4,9,0.05000000074505806,1.0,464.0091247558594,['w'],0.5136899948120117,b,757.0
modular,759,o,img/target_9.png,4,8,0.05000000074505806,1.0,464.62640380859375,['o'],0.49657702445983887,b,758.0
modular,760,v,img/target_5.png,4,6,0.05000000074505806,1.0,465.228515625,['v'],0.38264894485473633,b,759.0
modular,761,b,img/target_6.png,4,5,0.05000000074505806,1.0,465.708251953125,['b'],0.3748760223388672,b,760.0
modular,762,p,img/target_10.png,4,4,0.05000000074505806,1.0,466.1752624511719,['p'],0.5724711418151855,b,761.0
modular,763,q,img/target_1.png,4,2,0.05000000074505806,1.0,466.8422546386719,['q'],0.409343957901001,b,762.0
modular,764,r,img/target_4.png,4,1,0.05000000074505806,1.0,467.3584899902344,['r'],0.6363990306854248,b,763.0
modular,765,p,img/target_10.png,4,4,0.05000000074505806,1.0,468.0929870605469,['p'],0.542478084564209,b,764.0
modular,766,b,img/target_6.png,4,5,0.05000000074505806,1.0,468.72564697265625,['b'],0.5491518974304199,b,765.0
modular,767,v,img/target_5.png,4,6,0.05000000074505806,1.0,469.37579345703125,['v'],0.3079030513763428,b,766.0
modular,768,w,img/target_2.png,4,9,0.05000000074505806,1.0,469.7767028808594,['w'],0.3951108455657959,b,767.0
modular,769,e,img/target_3.png,4,7,0.05000000074505806,1.0,470.27642822265625,['e'],0.535423994064331,b,768.0
modular,770,o,img/target_9.png,4,8,0.05000000074505806,1.0,470.9087829589844,['o'],0.46982502937316895,b,769.0
modular,771,w,img/target_2.png,4,9,0.05000000074505806,1.0,471.47857666015625,['w'],0.3161628246307373,b,770.0
modular,772,o,img/target_9.png,4,8,0.05000000074505806,1.0,471.8925476074219,['o'],0.43028807640075684,b,771.0
modular,773,e,img/target_3.png,4,7,0.05000000074505806,1.0,472.42559814453125,['e'],0.5057330131530762,b,772.0
modular,774,v,img/target_5.png,4,6,0.05000000074505806,1.0,473.02642822265625,['v'],0.44023990631103516,b,773.0
modular,775,b,img/target_6.png,4,5,0.05000000074505806,1.0,473.5600891113281,['b'],0.38724303245544434,b,774.0
modular,776,o,img/target_9.png,4,8,0.05000000074505806,1.0,474.0423889160156,['o'],0.5050418376922607,b,775.0
modular,777,v,img/target_5.png,4,6,0.05000000074505806,1.0,474.6429138183594,['v'],0.3755760192871094,b,776.0
modular,778,o,img/target_9.png,4,8,0.05000000074505806,1.0,475.11004638671875,['o'],0.43654608726501465,b,777.0
modular,779,w,img/target_2.png,4,9,0.05000000074505806,1.0,475.6429748535156,['w'],0.3916959762573242,b,778.0
modular,780,e,img/target_3.png,4,7,0.05000000074505806,1.0,476.12689208984375,['e'],0.43563103675842285,b,779.0
modular,781,w,img/target_2.png,4,9,0.05000000074505806,1.0,476.6593322753906,['w'],0.34311985969543457,b,780.0
modular,782,e,img/target_3.png,4,7,0.05000000074505806,1.0,477.09344482421875,['e'],0.4371070861816406,b,781.0
modular,783,b,img/target_6.png,4,5,0.05000000074505806,1.0,477.6260986328125,['b'],0.4403560161590576,b,782.0
modular,784,v,img/target_5.png,4,6,0.05000000074505806,1.0,478.1601867675781,['v'],0.32329392433166504,b,783.0
modular,785,b,img/target_6.png,4,5,0.05000000074505806,1.0,478.57757568359375,['b'],0.44194817543029785,b,784.0
modular,786,v,img/target_5.png,4,6,0.05000000074505806,1.0,479.11083984375,['v'],0.37972593307495117,b,785.0
modular,787,o,img/target_9.png,4,8,0.05000000074505806,1.0,479.610595703125,['o'],0.4490489959716797,b,786.0
modular,788,v,img/target_5.png,4,6,0.05000000074505806,1.0,480.1607360839844,['v'],0.48950815200805664,b,787.0
modular,789,b,img/target_6.png,4,5,0.05000000074505806,1.0,480.7439880371094,['b'],0.3382880687713623,b,788.0
modular,790,v,img/target_5.png,4,6,0.05000000074505806,1.0,481.17657470703125,['v'],0.38565611839294434,b,789.0
modular,791,o,img/target_9.png,4,8,0.05000000074505806,1.0,481.6610412597656,['o'],0.43813419342041016,b,790.0
modular,792,e,img/target_3.png,4,7,0.05000000074505806,1.0,482.19427490234375,['e'],0.5522758960723877,b,791.0
modular,793,b,img/target_6.png,4,5,0.05000000074505806,1.0,482.84393310546875,['b'],0.5103168487548828,b,792.0
modular,794,p,img/target_10.png,4,4,0.05000000074505806,1.0,483.4441223144531,['p'],0.8783581256866455,b,793.0
modular,795,i,img/target_8.png,4,3,0.05000000074505806,1.0,484.42791748046875,['i'],0.5502738952636719,b,794.0
modular,796,r,img/target_4.png,4,1,0.05000000074505806,0.0,485.0777893066406,['r'],0.7572028636932373,b,795.0
modular,797,u,img/target_7.png,4,0,0.05000000074505806,1.0,485.9122619628906,['u'],0.4500157833099365,b,796.0
modular,798,q,img/target_1.png,4,2,0.05000000074505806,1.0,486.46051025390625,['q'],0.4858369827270508,b,797.0
modular,799,p,img/target_10.png,4,4,0.05000000074505806,1.0,487.0446472167969,['p'],0.4783909320831299,b,798.0
modular,800,b,img/target_6.png,4,5,0.05000000074505806,1.0,487.6280517578125,['b'],0.4392359256744385,b,799.0
modular,801,p,img/target_10.png,4,4,0.05000000074505806,1.0,488.1607971191406,['p'],0.48195695877075195,b,800.0
modular,802,q,img/target_1.png,4,2,0.05000000074505806,1.0,488.7448425292969,['q'],0.5694839954376221,b,801.0
modular,803,p,img/target_10.png,4,4,0.05000000074505806,1.0,489.4108581542969,['p'],0.40705394744873047,b,802.0
modular,804,i,img/target_8.png,4,3,0.05000000074505806,0.0,489.9117126464844,['i'],0.6909310817718506,b,803.0
modular,805,u,img/target_7.png,4,0,0.05000000074505806,1.0,490.6773986816406,['u'],0.42943692207336426,b,804.0
modular,806,r,img/target_4.png,4,1,0.05000000074505806,1.0,491.2119140625,['r'],0.35005712509155273,b,805.0
modular,807,q,img/target_1.png,4,2,0.05000000074505806,1.0,491.661865234375,['q'],0.40453100204467773,b,806.0
modular,808,u,img/target_7.png,4,0,0.05000000074505806,1.0,492.1619567871094,['u'],0.4169790744781494,b,807.0
modular,809,r,img/target_4.png,4,1,0.05000000074505806,1.0,492.6785888671875,['r'],0.32353901863098145,b,808.0
modular,810,i,img/target_8.png,4,3,0.05000000074505806,1.0,493.0953674316406,['i'],0.6105201244354248,b,809.0
modular,811,q,img/target_1.png,4,2,0.05000000074505806,1.0,493.8120422363281,['q'],0.4620649814605713,b,810.0
modular,812,r,img/target_4.png,4,1,0.05000000074505806,1.0,494.3789367675781,['r'],0.3591639995574951,b,811.0
modular,813,q,img/target_1.png,4,2,0.05000000074505806,1.0,494.8280029296875,['q'],0.38240814208984375,b,812.0
modular,814,u,img/target_7.png,4,0,0.05000000074505806,1.0,495.3123779296875,['u'],0.5225329399108887,b,813.0
modular,815,i,img/target_8.png,4,3,0.05000000074505806,1.0,495.9285888671875,['i'],0.4572739601135254,b,814.0
modular,816,q,img/target_1.png,4,2,0.05000000074505806,1.0,496.47882080078125,['q'],0.508216142654419,b,815.0
modular,817,u,img/target_7.png,4,0,0.05000000074505806,1.0,497.0959167480469,['u'],0.35378313064575195,b,816.0
modular,818,w,img/target_2.png,4,9,0.05000000074505806,1.0,497.545654296875,['w'],0.5842950344085693,b,817.0
modular,819,e,img/target_3.png,4,7,0.05000000074505806,1.0,498.2294006347656,['e'],0.5405170917510986,b,818.0
modular,820,v,img/target_5.png,4,6,0.05000000074505806,1.0,498.862060546875,['v'],0.45176100730895996,b,819.0
modular,821,e,img/target_3.png,4,7,0.05000000074505806,1.0,499.4292297363281,['e'],0.5731179714202881,b,820.0
modular,822,w,img/target_2.png,4,9,0.05000000074505806,1.0,500.095458984375,['w'],0.4912691116333008,b,821.0
modular,823,o,img/target_9.png,4,8,0.05000000074505806,1.0,500.67938232421875,['o'],0.6184570789337158,b,822.0
modular,824,e,img/target_3.png,4,7,0.05000000074505806,1.0,501.3968505859375,['e'],0.5250229835510254,b,823.0
modular,825,o,img/target_9.png,4,8,0.05000000074505806,1.0,502.01226806640625,['o'],0.4454829692840576,b,824.0
modular,826,w,img/target_2.png,4,9,0.05000000074505806,0.0,502.5623474121094,['w'],0.6236741542816162,b,825.0
modular,827,u,img/target_7.png,4,0,0.05000000074505806,1.0,503.266845703125,['u'],0.45596909523010254,b,826.0
modular,828,w,img/target_2.png,4,9,0.05000000074505806,1.0,503.8324890136719,['w'],0.36991310119628906,b,827.0
modular,829,o,img/target_9.png,4,8,0.05000000074505806,1.0,504.2960510253906,['o'],0.6820788383483887,b,828.0
modular,830,b,img/target_6.png,4,5,0.05000000074505806,1.0,505.0789794921875,['b'],0.42780184745788574,b,829.0
modular,831,v,img/target_5.png,4,6,0.05000000074505806,1.0,505.6131896972656,['v'],0.32415103912353516,b,830.0
modular,832,e,img/target_3.png,4,7,0.05000000074505806,1.0,506.02978515625,['e'],0.4923970699310303,b,831.0
modular,833,b,img/target_6.png,4,5,0.05000000074505806,1.0,506.6128234863281,['b'],0.461165189743042,b,832.0
modular,834,o,img/target_9.png,4,8,0.05000000074505806,1.0,507.1799011230469,['o'],0.5416607856750488,b,833.0
modular,835,b,img/target_6.png,4,5,0.05000000074505806,1.0,507.8127136230469,['b'],0.4288790225982666,b,834.0
modular,836,v,img/target_5.png,4,6,0.05000000074505806,1.0,508.34710693359375,['v'],0.42215895652770996,b,835.0
modular,837,b,img/target_6.png,4,5,0.05000000074505806,1.0,508.8624572753906,['b'],0.42806482315063477,b,836.0
modular,838,o,img/target_9.png,4,8,0.05000000074505806,1.0,509.4131774902344,['o'],0.46135902404785156,b,837.0
modular,839,b,img/target_6.png,4,5,0.05000000074505806,1.0,509.98004150390625,['b'],0.3740520477294922,b,838.0
modular,840,v,img/target_5.png,4,6,0.05000000074505806,1.0,510.4463195800781,['v'],0.35504698753356934,b,839.0
modular,841,w,img/target_2.png,4,9,0.05000000074505806,1.0,510.8965759277344,['w'],0.6493752002716064,b,840.0
modular,842,o,img/target_9.png,4,8,0.05000000074505806,1.0,511.6465759277344,['o'],0.5073509216308594,b,841.0
modular,843,w,img/target_2.png,4,9,0.05000000074505806,1.0,512.24755859375,['w'],0.4019148349761963,b,842.0
modular,844,e,img/target_3.png,4,7,0.05000000074505806,1.0,512.7463989257812,['e'],0.5515279769897461,b,843.0
modular,845,b,img/target_6.png,4,5,0.05000000074505806,1.0,513.3973388671875,['b'],0.4685389995574951,b,844.0
modular,846,v,img/target_5.png,4,6,0.05000000074505806,1.0,513.9638061523438,['v'],0.31026196479797363,b,845.0
modular,847,w,img/target_2.png,4,9,0.05000000074505806,1.0,514.3807983398438,['w'],0.501349925994873,b,846.0
modular,848,v,img/target_5.png,4,6,0.05000000074505806,1.0,514.9808959960938,['v'],0.4124259948730469,b,847.0
modular,849,e,img/target_3.png,4,7,0.05000000074505806,1.0,515.4969482421875,['e'],0.5613651275634766,b,848.0
modular,850,o,img/target_9.png,4,8,0.05000000074505806,1.0,516.1627807617188,['o'],0.5982861518859863,b,849.0
modular,851,w,img/target_2.png,4,9,0.05000000074505806,1.0,516.86328125,['w'],0.5298449993133545,b,850.0
modular,852,v,img/target_5.png,4,6,0.05000000074505806,1.0,517.49658203125,['v'],0.4177210330963135,b,851.0
modular,853,b,img/target_6.png,4,5,0.05000000074505806,1.0,518.01318359375,['b'],0.3802359104156494,b,852.0
modular,854,e,img/target_3.png,4,7,0.05000000074505806,1.0,518.4979248046875,['e'],0.48810696601867676,b,853.0
modular,855,b,img/target_6.png,4,5,0.05000000074505806,1.0,519.0808715820312,['b'],0.3771078586578369,b,854.0
modular,856,p,img/target_10.png,4,4,0.05000000074505806,1.0,519.5841064453125,['p'],0.5857400894165039,b,855.0
modular,857,b,img/target_6.png,4,5,0.05000000074505806,1.0,520.26416015625,['b'],0.4170689582824707,b,856.0
modular,858,v,img/target_5.png,4,6,0.05000000074505806,1.0,520.7808837890625,['v'],0.3249650001525879,b,857.0
modular,859,o,img/target_9.png,4,8,0.05000000074505806,1.0,521.2147827148438,['o'],0.46651506423950195,b,858.0
modular,860,b,img/target_6.png,4,5,0.05000000074505806,1.0,521.7803344726562,['b'],0.43661999702453613,b,859.0
modular,861,p,img/target_10.png,4,4,0.05000000074505806,1.0,522.3148193359375,['p'],0.6062018871307373,b,860.0
modular,862,i,img/target_8.png,4,3,0.05000000074505806,0.0,523.014892578125,['i'],1.075160026550293,b,861.0
modular,863,q,img/target_1.png,4,2,0.05000000074505806,1.0,524.1806640625,['q'],0.5814018249511719,b,862.0
modular,864,r,img/target_4.png,4,1,0.05000000074505806,1.0,524.8652954101562,['r'],0.6634080410003662,b,863.0
modular,865,u,img/target_7.png,4,0,0.05000000074505806,1.0,525.6304931640625,['u'],0.47469520568847656,b,864.0
modular,866,r,img/target_4.png,4,1,0.05000000074505806,1.0,526.1978149414062,['r'],0.4435901641845703,b,865.0
modular,867,u,img/target_7.png,4,0,0.05000000074505806,1.0,526.7318115234375,['u'],0.3979301452636719,b,866.0
modular,868,q,img/target_1.png,4,2,0.05000000074505806,1.0,527.2318115234375,['q'],0.5775609016418457,b,867.0
modular,869,r,img/target_4.png,4,1,0.05000000074505806,1.0,527.9142456054688,['r'],0.34325289726257324,b,868.0
modular,870,q,img/target_1.png,4,2,0.05000000074505806,1.0,528.365234375,['q'],0.403580904006958,b,869.0
modular,871,r,img/target_4.png,4,1,0.05000000074505806,1.0,528.865234375,['r'],0.3364830017089844,b,870.0
modular,872,i,img/target_8.png,4,3,0.05000000074505806,1.0,529.2988891601562,['i'],0.7256031036376953,b,871.0
modular,873,r,img/target_4.png,4,1,0.05000000074505806,1.0,530.1143798828125,['r'],0.47922205924987793,b,872.0
modular,874,q,img/target_1.png,4,2,0.05000000074505806,1.0,530.699951171875,['q'],0.44461917877197266,b,873.0
modular,875,r,img/target_4.png,4,1,0.05000000074505806,1.0,531.2489013671875,['r'],0.33696413040161133,b,874.0
modular,876,i,img/target_8.png,4,3,0.05000000074505806,1.0,531.6825561523438,['i'],0.5908420085906982,b,875.0
modular,877,p,img/target_10.png,4,4,0.05000000074505806,1.0,532.364990234375,['p'],0.467663049697876,b,876.0
modular,878,r,img/target_4.png,4,1,0.05000000074505806,1.0,532.9317626953125,['r'],0.4055321216583252,b,877.0
modular,879,p,img/target_10.png,4,4,0.05000000074505806,1.0,533.4325561523438,['p'],0.512962818145752,b,878.0
modular,880,i,img/target_8.png,4,3,0.05000000074505806,1.0,534.0494995117188,['i'],0.623060941696167,b,879.0
modular,881,r,img/target_4.png,4,1,0.05000000074505806,1.0,534.7662353515625,['r'],0.3387269973754883,b,880.0
modular,882,u,img/target_7.png,4,0,0.05000000074505806,1.0,535.1986694335938,['u'],0.4426000118255615,b,881.0
modular,883,q,img/target_1.png,4,2,0.05000000074505806,1.0,535.7484130859375,['q'],0.38033413887023926,b,882.0
modular,884,u,img/target_7.png,4,0,0.05000000074505806,1.0,536.231689453125,['u'],0.3605802059173584,b,883.0
modular,885,w,img/target_2.png,4,9,0.05000000074505806,1.0,536.6820678710938,['w'],0.535193920135498,b,884.0
modular,886,e,img/target_3.png,4,7,0.05000000074505806,1.0,537.3148803710938,['e'],0.43817615509033203,b,885.0
modular,887,o,img/target_9.png,4,8,0.05000000074505806,1.0,537.8497314453125,['o'],0.5437629222869873,b,886.0
modular,888,w,img/target_2.png,4,9,0.05000000074505806,1.0,538.4998168945312,['w'],0.5085170269012451,b,887.0
modular,889,o,img/target_9.png,4,8,0.05000000074505806,1.0,539.099365234375,['o'],0.6462240219116211,b,888.0
modular,890,w,img/target_2.png,4,9,0.05000000074505806,1.0,539.849853515625,['w'],0.5904390811920166,b,889.0
modular,891,u,img/target_7.png,4,0,0.05000000074505806,1.0,540.5325317382812,['u'],0.5087108612060547,b,890.0
modular,892,w,img/target_2.png,4,9,0.05000000074505806,1.0,541.1328735351562,['w'],0.4999048709869385,b,891.0
modular,893,v,img/target_5.png,4,6,0.05000000074505806,1.0,541.7332153320312,['v'],0.49952197074890137,b,892.0
modular,894,o,img/target_9.png,4,8,0.05000000074505806,1.0,542.3335571289062,['o'],0.46773600578308105,b,893.0
modular,895,b,img/target_6.png,4,5,0.05000000074505806,1.0,542.8994750976562,['b'],0.3819098472595215,b,894.0
modular,896,v,img/target_5.png,4,6,0.05000000074505806,1.0,543.3833618164062,['v'],0.3935730457305908,b,895.0
modular,897,w,img/target_2.png,4,9,0.05000000074505806,1.0,543.8836669921875,['w'],0.509199857711792,b,896.0
modular,898,o,img/target_9.png,4,8,0.05000000074505806,1.0,544.499267578125,['o'],0.4688899517059326,b,897.0
modular,899,e,img/target_3.png,4,7,0.05000000074505806,1.0,545.0670776367188,['e'],0.5170459747314453,b,898.0
modular,900,o,img/target_9.png,4,8,0.05000000074505806,1.0,545.6828002929688,['o'],0.5025990009307861,b,899.0
modular,901,w,img/target_2.png,4,9,0.05000000074505806,1.0,546.2836303710938,['w'],0.6525039672851562,b,900.0
modular,902,u,img/target_7.png,4,0,0.05000000074505806,1.0,547.0325927734375,['u'],0.4954559803009033,b,901.0
modular,903,q,img/target_1.png,4,2,0.05000000074505806,0.0,547.6339111328125,['q'],0.49554991722106934,b,902.0
modular,904,u,img/target_7.png,4,0,0.05000000074505806,1.0,548.2163696289062,['u'],0.6477780342102051,b,903.0
modular,905,r,img/target_4.png,4,1,0.05000000074505806,1.0,548.9674682617188,['r'],0.4812779426574707,b,904.0
modular,906,u,img/target_7.png,4,0,0.05000000074505806,1.0,549.5499877929688,['u'],0.4512341022491455,b,905.0
modular,907,w,img/target_2.png,4,9,0.05000000074505806,1.0,550.1000366210938,['w'],0.47585105895996094,b,906.0
