sess,graph,trialNum,resp,path,pID,walk,ISI_raw,correct_raw,onset_raw,resp_raw,rt_raw,typing_raw,order
2,modular,1,i,img/target_8.png,60,3,0.05000000074505806,1.0,0.009435892105102539,['i'],0.6226730346679688,a,0.0
2,modular,2,q,img/target_1.png,60,4,0.05000000074505806,0.0,0.7182888984680176,['q'],2.5378670692443848,a,1.0
2,modular,3,b,img/target_6.png,60,5,0.05000000074505806,1.0,3.3338849544525146,['b'],0.4662339687347412,a,2.0
2,modular,4,q,img/target_1.png,60,4,0.05000000074505806,0.0,3.90044903755188,['q'],2.7237210273742676,a,3.0
2,modular,5,b,img/target_6.png,60,5,,,,'--',,'--',4.0
2,modular,6,r,img/target_4.png,60,7,,,,'--',,'--',
2,modular,7,b,img/target_6.png,60,5,,,,'--',,'--',
2,modular,8,o,img/target_9.png,60,6,,,,'--',,'--',
2,modular,9,e,img/target_3.png,60,9,,,,'--',,'--',
2,modular,10,u,img/target_7.png,60,0,,,,'--',,'--',
2,modular,11,v,img/target_5.png,60,2,,,,'--',,'--',
2,modular,12,u,img/target_7.png,60,0,,,,'--',,'--',
2,modular,13,e,img/target_3.png,60,9,,,,'--',,'--',
2,modular,14,u,img/target_7.png,60,0,,,,'--',,'--',
2,modular,15,e,img/target_3.png,60,9,,,,'--',,'--',
2,modular,16,o,img/target_9.png,60,6,,,,'--',,'--',
2,modular,17,b,img/target_6.png,60,5,,,,'--',,'--',
2,modular,18,p,img/target_10.png,60,8,,,,'--',,'--',
2,modular,19,r,img/target_4.png,60,7,,,,'--',,'--',
2,modular,20,p,img/target_10.png,60,8,,,,'--',,'--',
2,modular,21,o,img/target_9.png,60,6,,,,'--',,'--',
2,modular,22,p,img/target_10.png,60,8,,,,'--',,'--',
2,modular,23,e,img/target_3.png,60,9,,,,'--',,'--',
2,modular,24,r,img/target_4.png,60,7,,,,'--',,'--',
2,modular,25,e,img/target_3.png,60,9,,,,'--',,'--',
2,modular,26,u,img/target_7.png,60,0,,,,'--',,'--',
2,modular,27,e,img/target_3.png,60,9,,,,'--',,'--',
2,modular,28,r,img/target_4.png,60,7,,,,'--',,'--',
2,modular,29,o,img/target_9.png,60,6,,,,'--',,'--',
2,modular,30,r,img/target_4.png,60,7,,,,'--',,'--',
2,modular,31,o,img/target_9.png,60,6,,,,'--',,'--',
2,modular,32,r,img/target_4.png,60,7,,,,'--',,'--',
2,modular,33,b,img/target_6.png,60,5,,,,'--',,'--',
2,modular,34,o,img/target_9.png,60,6,,,,'--',,'--',
2,modular,35,r,img/target_4.png,60,7,,,,'--',,'--',
2,modular,36,o,img/target_9.png,60,6,,,,'--',,'--',
2,modular,37,b,img/target_6.png,60,5,,,,'--',,'--',
2,modular,38,r,img/target_4.png,60,7,,,,'--',,'--',
2,modular,39,o,img/target_9.png,60,6,,,,'--',,'--',
2,modular,40,r,img/target_4.png,60,7,,,,'--',,'--',
2,modular,41,o,img/target_9.png,60,6,,,,'--',,'--',
2,modular,42,r,img/target_4.png,60,7,,,,'--',,'--',
2,modular,43,b,img/target_6.png,60,5,,,,'--',,'--',
2,modular,44,q,img/target_1.png,60,4,,,,'--',,'--',
2,modular,45,i,img/target_8.png,60,3,,,,'--',,'--',
2,modular,46,w,img/target_2.png,60,1,,,,'--',,'--',
2,modular,47,v,img/target_5.png,60,2,,,,'--',,'--',
2,modular,48,i,img/target_8.png,60,3,,,,'--',,'--',
2,modular,49,w,img/target_2.png,60,1,,,,'--',,'--',
2,modular,50,v,img/target_5.png,60,2,,,,'--',,'--',
2,modular,51,q,img/target_1.png,60,4,,,,'--',,'--',
2,modular,52,v,img/target_5.png,60,2,,,,'--',,'--',
2,modular,53,q,img/target_1.png,60,4,,,,'--',,'--',
2,modular,54,b,img/target_6.png,60,5,,,,'--',,'--',
2,modular,55,p,img/target_10.png,60,8,,,,'--',,'--',
2,modular,56,o,img/target_9.png,60,6,,,,'--',,'--',
2,modular,57,p,img/target_10.png,60,8,,,,'--',,'--',
2,modular,58,o,img/target_9.png,60,6,,,,'--',,'--',
2,modular,59,e,img/target_3.png,60,9,,,,'--',,'--',
2,modular,60,p,img/target_10.png,60,8,,,,'--',,'--',
2,modular,61,r,img/target_4.png,60,7,,,,'--',,'--',
2,modular,62,p,img/target_10.png,60,8,,,,'--',,'--',
2,modular,63,e,img/target_3.png,60,9,,,,'--',,'--',
2,modular,64,o,img/target_9.png,60,6,,,,'--',,'--',
2,modular,65,r,img/target_4.png,60,7,,,,'--',,'--',
2,modular,66,b,img/target_6.png,60,5,,,,'--',,'--',
2,modular,67,r,img/target_4.png,60,7,,,,'--',,'--',
2,modular,68,b,img/target_6.png,60,5,,,,'--',,'--',
2,modular,69,p,img/target_10.png,60,8,,,,'--',,'--',
2,modular,70,b,img/target_6.png,60,5,,,,'--',,'--',
2,modular,71,p,img/target_10.png,60,8,,,,'--',,'--',
2,modular,72,r,img/target_4.png,60,7,,,,'--',,'--',
2,modular,73,b,img/target_6.png,60,5,,,,'--',,'--',
2,modular,74,o,img/target_9.png,60,6,,,,'--',,'--',
2,modular,75,e,img/target_3.png,60,9,,,,'--',,'--',
2,modular,76,r,img/target_4.png,60,7,,,,'--',,'--',
2,modular,77,o,img/target_9.png,60,6,,,,'--',,'--',
2,modular,78,b,img/target_6.png,60,5,,,,'--',,'--',
2,modular,79,p,img/target_10.png,60,8,,,,'--',,'--',
2,modular,80,b,img/target_6.png,60,5,,,,'--',,'--',
2,modular,81,r,img/target_4.png,60,7,,,,'--',,'--',
2,modular,82,p,img/target_10.png,60,8,,,,'--',,'--',
2,modular,83,b,img/target_6.png,60,5,,,,'--',,'--',
2,modular,84,p,img/target_10.png,60,8,,,,'--',,'--',
2,modular,85,e,img/target_3.png,60,9,,,,'--',,'--',
2,modular,86,o,img/target_9.png,60,6,,,,'--',,'--',
2,modular,87,e,img/target_3.png,60,9,,,,'--',,'--',
2,modular,88,r,img/target_4.png,60,7,,,,'--',,'--',
2,modular,89,b,img/target_6.png,60,5,,,,'--',,'--',
2,modular,90,p,img/target_10.png,60,8,,,,'--',,'--',
2,modular,91,o,img/target_9.png,60,6,,,,'--',,'--',
2,modular,92,b,img/target_6.png,60,5,,,,'--',,'--',
2,modular,93,o,img/target_9.png,60,6,,,,'--',,'--',
2,modular,94,e,img/target_3.png,60,9,,,,'--',,'--',
2,modular,95,u,img/target_7.png,60,0,,,,'--',,'--',
2,modular,96,v,img/target_5.png,60,2,,,,'--',,'--',
2,modular,97,i,img/target_8.png,60,3,,,,'--',,'--',
2,modular,98,q,img/target_1.png,60,4,,,,'--',,'--',
2,modular,99,w,img/target_2.png,60,1,,,,'--',,'--',
2,modular,100,v,img/target_5.png,60,2,,,,'--',,'--',
2,modular,101,w,img/target_2.png,60,1,,,,'--',,'--',
2,modular,102,u,img/target_7.png,60,0,,,,'--',,'--',
2,modular,103,w,img/target_2.png,60,1,,,,'--',,'--',
2,modular,104,u,img/target_7.png,60,0,,,,'--',,'--',
2,modular,105,e,img/target_3.png,60,9,,,,'--',,'--',
2,modular,106,u,img/target_7.png,60,0,,,,'--',,'--',
2,modular,107,w,img/target_2.png,60,1,,,,'--',,'--',
2,modular,108,i,img/target_8.png,60,3,,,,'--',,'--',
2,modular,109,w,img/target_2.png,60,1,,,,'--',,'--',
2,modular,110,v,img/target_5.png,60,2,,,,'--',,'--',
2,modular,111,w,img/target_2.png,60,1,,,,'--',,'--',
2,modular,112,v,img/target_5.png,60,2,,,,'--',,'--',
2,modular,113,u,img/target_7.png,60,0,,,,'--',,'--',
2,modular,114,e,img/target_3.png,60,9,,,,'--',,'--',
2,modular,115,r,img/target_4.png,60,7,,,,'--',,'--',
2,modular,116,e,img/target_3.png,60,9,,,,'--',,'--',
2,modular,117,u,img/target_7.png,60,0,,,,'--',,'--',
2,modular,118,e,img/target_3.png,60,9,,,,'--',,'--',
2,modular,119,o,img/target_9.png,60,6,,,,'--',,'--',
2,modular,120,r,img/target_4.png,60,7,,,,'--',,'--',
2,modular,121,p,img/target_10.png,60,8,,,,'--',,'--',
2,modular,122,e,img/target_3.png,60,9,,,,'--',,'--',
2,modular,123,r,img/target_4.png,60,7,,,,'--',,'--',
2,modular,124,p,img/target_10.png,60,8,,,,'--',,'--',
2,modular,125,o,img/target_9.png,60,6,,,,'--',,'--',
2,modular,126,p,img/target_10.png,60,8,,,,'--',,'--',
2,modular,127,r,img/target_4.png,60,7,,,,'--',,'--',
2,modular,128,e,img/target_3.png,60,9,,,,'--',,'--',
2,modular,129,p,img/target_10.png,60,8,,,,'--',,'--',
2,modular,130,b,img/target_6.png,60,5,,,,'--',,'--',
2,modular,131,q,img/target_1.png,60,4,,,,'--',,'--',
2,modular,132,v,img/target_5.png,60,2,,,,'--',,'--',
2,modular,133,i,img/target_8.png,60,3,,,,'--',,'--',
2,modular,134,v,img/target_5.png,60,2,,,,'--',,'--',
2,modular,135,u,img/target_7.png,60,0,,,,'--',,'--',
2,modular,136,e,img/target_3.png,60,9,,,,'--',,'--',
2,modular,137,r,img/target_4.png,60,7,,,,'--',,'--',
2,modular,138,b,img/target_6.png,60,5,,,,'--',,'--',
2,modular,139,r,img/target_4.png,60,7,,,,'--',,'--',
2,modular,140,b,img/target_6.png,60,5,,,,'--',,'--',
2,modular,141,r,img/target_4.png,60,7,,,,'--',,'--',
2,modular,142,p,img/target_10.png,60,8,,,,'--',,'--',
2,modular,143,o,img/target_9.png,60,6,,,,'--',,'--',
2,modular,144,b,img/target_6.png,60,5,,,,'--',,'--',
2,modular,145,o,img/target_9.png,60,6,,,,'--',,'--',
2,modular,146,p,img/target_10.png,60,8,,,,'--',,'--',
2,modular,147,r,img/target_4.png,60,7,,,,'--',,'--',
2,modular,148,p,img/target_10.png,60,8,,,,'--',,'--',
2,modular,149,e,img/target_3.png,60,9,,,,'--',,'--',
2,modular,150,u,img/target_7.png,60,0,,,,'--',,'--',
2,modular,151,v,img/target_5.png,60,2,,,,'--',,'--',
2,modular,152,u,img/target_7.png,60,0,,,,'--',,'--',
2,modular,153,w,img/target_2.png,60,1,,,,'--',,'--',
2,modular,154,q,img/target_1.png,60,4,,,,'--',,'--',
2,modular,155,w,img/target_2.png,60,1,,,,'--',,'--',
2,modular,156,u,img/target_7.png,60,0,,,,'--',,'--',
2,modular,157,w,img/target_2.png,60,1,,,,'--',,'--',
2,modular,158,v,img/target_5.png,60,2,,,,'--',,'--',
2,modular,159,w,img/target_2.png,60,1,,,,'--',,'--',
2,modular,160,i,img/target_8.png,60,3,,,,'--',,'--',
2,modular,161,v,img/target_5.png,60,2,,,,'--',,'--',
2,modular,162,u,img/target_7.png,60,0,,,,'--',,'--',
2,modular,163,v,img/target_5.png,60,2,,,,'--',,'--',
2,modular,164,q,img/target_1.png,60,4,,,,'--',,'--',
2,modular,165,i,img/target_8.png,60,3,,,,'--',,'--',
2,modular,166,q,img/target_1.png,60,4,,,,'--',,'--',
2,modular,167,w,img/target_2.png,60,1,,,,'--',,'--',
2,modular,168,v,img/target_5.png,60,2,,,,'--',,'--',
2,modular,169,u,img/target_7.png,60,0,,,,'--',,'--',
2,modular,170,i,img/target_8.png,60,3,,,,'--',,'--',
2,modular,171,w,img/target_2.png,60,1,,,,'--',,'--',
2,modular,172,i,img/target_8.png,60,3,,,,'--',,'--',
2,modular,173,w,img/target_2.png,60,1,,,,'--',,'--',
2,modular,174,v,img/target_5.png,60,2,,,,'--',,'--',
2,modular,175,u,img/target_7.png,60,0,,,,'--',,'--',
2,modular,176,w,img/target_2.png,60,1,,,,'--',,'--',
2,modular,177,q,img/target_1.png,60,4,,,,'--',,'--',
2,modular,178,i,img/target_8.png,60,3,,,,'--',,'--',
2,modular,179,q,img/target_1.png,60,4,,,,'--',,'--',
2,modular,180,w,img/target_2.png,60,1,,,,'--',,'--',
2,modular,181,u,img/target_7.png,60,0,,,,'--',,'--',
2,modular,182,v,img/target_5.png,60,2,,,,'--',,'--',
2,modular,183,i,img/target_8.png,60,3,,,,'--',,'--',
2,modular,184,w,img/target_2.png,60,1,,,,'--',,'--',
2,modular,185,q,img/target_1.png,60,4,,,,'--',,'--',
2,modular,186,i,img/target_8.png,60,3,,,,'--',,'--',
2,modular,187,v,img/target_5.png,60,2,,,,'--',,'--',
2,modular,188,q,img/target_1.png,60,4,,,,'--',,'--',
2,modular,189,i,img/target_8.png,60,3,,,,'--',,'--',
2,modular,190,q,img/target_1.png,60,4,,,,'--',,'--',
2,modular,191,i,img/target_8.png,60,3,,,,'--',,'--',
2,modular,192,w,img/target_2.png,60,1,,,,'--',,'--',
2,modular,193,q,img/target_1.png,60,4,,,,'--',,'--',
2,modular,194,i,img/target_8.png,60,3,,,,'--',,'--',
2,modular,195,u,img/target_7.png,60,0,,,,'--',,'--',
2,modular,196,v,img/target_5.png,60,2,,,,'--',,'--',
2,modular,197,i,img/target_8.png,60,3,,,,'--',,'--',
2,modular,198,u,img/target_7.png,60,0,,,,'--',,'--',
2,modular,199,i,img/target_8.png,60,3,,,,'--',,'--',
2,modular,200,v,img/target_5.png,60,2,,,,'--',,'--',
2,modular,201,q,img/target_1.png,60,4,,,,'--',,'--',
2,modular,202,b,img/target_6.png,60,5,,,,'--',,'--',
2,modular,203,q,img/target_1.png,60,4,,,,'--',,'--',
2,modular,204,i,img/target_8.png,60,3,,,,'--',,'--',
2,modular,205,q,img/target_1.png,60,4,,,,'--',,'--',
2,modular,206,i,img/target_8.png,60,3,,,,'--',,'--',
2,modular,207,q,img/target_1.png,60,4,,,,'--',,'--',
2,modular,208,b,img/target_6.png,60,5,,,,'--',,'--',
2,modular,209,p,img/target_10.png,60,8,,,,'--',,'--',
2,modular,210,r,img/target_4.png,60,7,,,,'--',,'--',
2,modular,211,b,img/target_6.png,60,5,,,,'--',,'--',
2,modular,212,q,img/target_1.png,60,4,,,,'--',,'--',
2,modular,213,v,img/target_5.png,60,2,,,,'--',,'--',
2,modular,214,i,img/target_8.png,60,3,,,,'--',,'--',
2,modular,215,v,img/target_5.png,60,2,,,,'--',,'--',
2,modular,216,q,img/target_1.png,60,4,,,,'--',,'--',
2,modular,217,w,img/target_2.png,60,1,,,,'--',,'--',
2,modular,218,q,img/target_1.png,60,4,,,,'--',,'--',
2,modular,219,v,img/target_5.png,60,2,,,,'--',,'--',
2,modular,220,q,img/target_1.png,60,4,,,,'--',,'--',
2,modular,221,i,img/target_8.png,60,3,,,,'--',,'--',
2,modular,222,q,img/target_1.png,60,4,,,,'--',,'--',
2,modular,223,b,img/target_6.png,60,5,,,,'--',,'--',
2,modular,224,q,img/target_1.png,60,4,,,,'--',,'--',
2,modular,225,b,img/target_6.png,60,5,,,,'--',,'--',
2,modular,226,q,img/target_1.png,60,4,,,,'--',,'--',
2,modular,227,i,img/target_8.png,60,3,,,,'--',,'--',
2,modular,228,w,img/target_2.png,60,1,,,,'--',,'--',
2,modular,229,i,img/target_8.png,60,3,,,,'--',,'--',
2,modular,230,w,img/target_2.png,60,1,,,,'--',,'--',
2,modular,231,v,img/target_5.png,60,2,,,,'--',,'--',
2,modular,232,w,img/target_2.png,60,1,,,,'--',,'--',
2,modular,233,i,img/target_8.png,60,3,,,,'--',,'--',
2,modular,234,u,img/target_7.png,60,0,,,,'--',,'--',
2,modular,235,w,img/target_2.png,60,1,,,,'--',,'--',
2,modular,236,v,img/target_5.png,60,2,,,,'--',,'--',
2,modular,237,i,img/target_8.png,60,3,,,,'--',,'--',
2,modular,238,w,img/target_2.png,60,1,,,,'--',,'--',
2,modular,239,v,img/target_5.png,60,2,,,,'--',,'--',
2,modular,240,u,img/target_7.png,60,0,,,,'--',,'--',
2,modular,241,i,img/target_8.png,60,3,,,,'--',,'--',
2,modular,242,u,img/target_7.png,60,0,,,,'--',,'--',
2,modular,243,v,img/target_5.png,60,2,,,,'--',,'--',
2,modular,244,i,img/target_8.png,60,3,,,,'--',,'--',
2,modular,245,u,img/target_7.png,60,0,,,,'--',,'--',
2,modular,246,v,img/target_5.png,60,2,,,,'--',,'--',
2,modular,247,q,img/target_1.png,60,4,,,,'--',,'--',
2,modular,248,v,img/target_5.png,60,2,,,,'--',,'--',
2,modular,249,i,img/target_8.png,60,3,,,,'--',,'--',
2,modular,250,v,img/target_5.png,60,2,,,,'--',,'--',
2,modular,251,i,img/target_8.png,60,3,,,,'--',,'--',
2,modular,252,q,img/target_1.png,60,4,,,,'--',,'--',
2,modular,253,i,img/target_8.png,60,3,,,,'--',,'--',
2,modular,254,u,img/target_7.png,60,0,,,,'--',,'--',
2,modular,255,w,img/target_2.png,60,1,,,,'--',,'--',
2,modular,256,i,img/target_8.png,60,3,,,,'--',,'--',
2,modular,257,u,img/target_7.png,60,0,,,,'--',,'--',
2,modular,258,e,img/target_3.png,60,9,,,,'--',,'--',
2,modular,259,p,img/target_10.png,60,8,,,,'--',,'--',
2,modular,260,r,img/target_4.png,60,7,,,,'--',,'--',
2,modular,261,o,img/target_9.png,60,6,,,,'--',,'--',
2,modular,262,p,img/target_10.png,60,8,,,,'--',,'--',
2,modular,263,r,img/target_4.png,60,7,,,,'--',,'--',
2,modular,264,p,img/target_10.png,60,8,,,,'--',,'--',
2,modular,265,e,img/target_3.png,60,9,,,,'--',,'--',
2,modular,266,o,img/target_9.png,60,6,,,,'--',,'--',
2,modular,267,e,img/target_3.png,60,9,,,,'--',,'--',
2,modular,268,u,img/target_7.png,60,0,,,,'--',,'--',
2,modular,269,v,img/target_5.png,60,2,,,,'--',,'--',
2,modular,270,i,img/target_8.png,60,3,,,,'--',,'--',
2,modular,271,w,img/target_2.png,60,1,,,,'--',,'--',
2,modular,272,u,img/target_7.png,60,0,,,,'--',,'--',
2,modular,273,w,img/target_2.png,60,1,,,,'--',,'--',
2,modular,274,q,img/target_1.png,60,4,,,,'--',,'--',
2,modular,275,w,img/target_2.png,60,1,,,,'--',,'--',
2,modular,276,q,img/target_1.png,60,4,,,,'--',,'--',
2,modular,277,i,img/target_8.png,60,3,,,,'--',,'--',
2,modular,278,q,img/target_1.png,60,4,,,,'--',,'--',
2,modular,279,i,img/target_8.png,60,3,,,,'--',,'--',
2,modular,280,u,img/target_7.png,60,0,,,,'--',,'--',
2,modular,281,w,img/target_2.png,60,1,,,,'--',,'--',
2,modular,282,u,img/target_7.png,60,0,,,,'--',,'--',
2,modular,283,v,img/target_5.png,60,2,,,,'--',,'--',
2,modular,284,q,img/target_1.png,60,4,,,,'--',,'--',
2,modular,285,i,img/target_8.png,60,3,,,,'--',,'--',
2,modular,286,v,img/target_5.png,60,2,,,,'--',,'--',
2,modular,287,i,img/target_8.png,60,3,,,,'--',,'--',
2,modular,288,q,img/target_1.png,60,4,,,,'--',,'--',
2,modular,289,i,img/target_8.png,60,3,,,,'--',,'--',
2,modular,290,q,img/target_1.png,60,4,,,,'--',,'--',
2,modular,291,b,img/target_6.png,60,5,,,,'--',,'--',
2,modular,292,r,img/target_4.png,60,7,,,,'--',,'--',
2,modular,293,b,img/target_6.png,60,5,,,,'--',,'--',
2,modular,294,p,img/target_10.png,60,8,,,,'--',,'--',
2,modular,295,o,img/target_9.png,60,6,,,,'--',,'--',
2,modular,296,b,img/target_6.png,60,5,,,,'--',,'--',
2,modular,297,r,img/target_4.png,60,7,,,,'--',,'--',
2,modular,298,b,img/target_6.png,60,5,,,,'--',,'--',
2,modular,299,p,img/target_10.png,60,8,,,,'--',,'--',
2,modular,300,o,img/target_9.png,60,6,,,,'--',,'--',
2,modular,301,r,img/target_4.png,60,7,,,,'--',,'--',
2,modular,302,p,img/target_10.png,60,8,,,,'--',,'--',
2,modular,303,r,img/target_4.png,60,7,,,,'--',,'--',
2,modular,304,o,img/target_9.png,60,6,,,,'--',,'--',
2,modular,305,b,img/target_6.png,60,5,,,,'--',,'--',
2,modular,306,p,img/target_10.png,60,8,,,,'--',,'--',
2,modular,307,b,img/target_6.png,60,5,,,,'--',,'--',
2,modular,308,p,img/target_10.png,60,8,,,,'--',,'--',
2,modular,309,e,img/target_3.png,60,9,,,,'--',,'--',
2,modular,310,r,img/target_4.png,60,7,,,,'--',,'--',
2,modular,311,p,img/target_10.png,60,8,,,,'--',,'--',
2,modular,312,b,img/target_6.png,60,5,,,,'--',,'--',
2,modular,313,p,img/target_10.png,60,8,,,,'--',,'--',
2,modular,314,b,img/target_6.png,60,5,,,,'--',,'--',
2,modular,315,p,img/target_10.png,60,8,,,,'--',,'--',
2,modular,316,e,img/target_3.png,60,9,,,,'--',,'--',
2,modular,317,u,img/target_7.png,60,0,,,,'--',,'--',
2,modular,318,v,img/target_5.png,60,2,,,,'--',,'--',
2,modular,319,i,img/target_8.png,60,3,,,,'--',,'--',
2,modular,320,v,img/target_5.png,60,2,,,,'--',,'--',
2,modular,321,w,img/target_2.png,60,1,,,,'--',,'--',
2,modular,322,u,img/target_7.png,60,0,,,,'--',,'--',
2,modular,323,w,img/target_2.png,60,1,,,,'--',,'--',
2,modular,324,i,img/target_8.png,60,3,,,,'--',,'--',
2,modular,325,q,img/target_1.png,60,4,,,,'--',,'--',
2,modular,326,v,img/target_5.png,60,2,,,,'--',,'--',
2,modular,327,i,img/target_8.png,60,3,,,,'--',,'--',
2,modular,328,w,img/target_2.png,60,1,,,,'--',,'--',
2,modular,329,q,img/target_1.png,60,4,,,,'--',,'--',
2,modular,330,i,img/target_8.png,60,3,,,,'--',,'--',
2,modular,331,u,img/target_7.png,60,0,,,,'--',,'--',
2,modular,332,v,img/target_5.png,60,2,,,,'--',,'--',
2,modular,333,q,img/target_1.png,60,4,,,,'--',,'--',
2,modular,334,v,img/target_5.png,60,2,,,,'--',,'--',
2,modular,335,i,img/target_8.png,60,3,,,,'--',,'--',
2,modular,336,q,img/target_1.png,60,4,,,,'--',,'--',
2,modular,337,v,img/target_5.png,60,2,,,,'--',,'--',
2,modular,338,i,img/target_8.png,60,3,,,,'--',,'--',
2,modular,339,u,img/target_7.png,60,0,,,,'--',,'--',
2,modular,340,w,img/target_2.png,60,1,,,,'--',,'--',
2,modular,341,u,img/target_7.png,60,0,,,,'--',,'--',
2,modular,342,e,img/target_3.png,60,9,,,,'--',,'--',
2,modular,343,p,img/target_10.png,60,8,,,,'--',,'--',
2,modular,344,b,img/target_6.png,60,5,,,,'--',,'--',
2,modular,345,r,img/target_4.png,60,7,,,,'--',,'--',
2,modular,346,b,img/target_6.png,60,5,,,,'--',,'--',
2,modular,347,o,img/target_9.png,60,6,,,,'--',,'--',
2,modular,348,p,img/target_10.png,60,8,,,,'--',,'--',
2,modular,349,b,img/target_6.png,60,5,,,,'--',,'--',
2,modular,350,r,img/target_4.png,60,7,,,,'--',,'--',
2,modular,351,b,img/target_6.png,60,5,,,,'--',,'--',
2,modular,352,r,img/target_4.png,60,7,,,,'--',,'--',
2,modular,353,o,img/target_9.png,60,6,,,,'--',,'--',
2,modular,354,b,img/target_6.png,60,5,,,,'--',,'--',
2,modular,355,r,img/target_4.png,60,7,,,,'--',,'--',
2,modular,356,b,img/target_6.png,60,5,,,,'--',,'--',
2,modular,357,o,img/target_9.png,60,6,,,,'--',,'--',
2,modular,358,b,img/target_6.png,60,5,,,,'--',,'--',
2,modular,359,q,img/target_1.png,60,4,,,,'--',,'--',
2,modular,360,i,img/target_8.png,60,3,,,,'--',,'--',
2,modular,361,q,img/target_1.png,60,4,,,,'--',,'--',
2,modular,362,v,img/target_5.png,60,2,,,,'--',,'--',
2,modular,363,q,img/target_1.png,60,4,,,,'--',,'--',
2,modular,364,i,img/target_8.png,60,3,,,,'--',,'--',
2,modular,365,w,img/target_2.png,60,1,,,,'--',,'--',
2,modular,366,u,img/target_7.png,60,0,,,,'--',,'--',
2,modular,367,i,img/target_8.png,60,3,,,,'--',,'--',
2,modular,368,u,img/target_7.png,60,0,,,,'--',,'--',
2,modular,369,w,img/target_2.png,60,1,,,,'--',,'--',
2,modular,370,i,img/target_8.png,60,3,,,,'--',,'--',
2,modular,371,q,img/target_1.png,60,4,,,,'--',,'--',
2,modular,372,w,img/target_2.png,60,1,,,,'--',,'--',
2,modular,373,u,img/target_7.png,60,0,,,,'--',,'--',
2,modular,374,w,img/target_2.png,60,1,,,,'--',,'--',
2,modular,375,q,img/target_1.png,60,4,,,,'--',,'--',
2,modular,376,w,img/target_2.png,60,1,,,,'--',,'--',
2,modular,377,u,img/target_7.png,60,0,,,,'--',,'--',
2,modular,378,i,img/target_8.png,60,3,,,,'--',,'--',
2,modular,379,q,img/target_1.png,60,4,,,,'--',,'--',
2,modular,380,b,img/target_6.png,60,5,,,,'--',,'--',
2,modular,381,r,img/target_4.png,60,7,,,,'--',,'--',
2,modular,382,o,img/target_9.png,60,6,,,,'--',,'--',
2,modular,383,p,img/target_10.png,60,8,,,,'--',,'--',
2,modular,384,r,img/target_4.png,60,7,,,,'--',,'--',
2,modular,385,e,img/target_3.png,60,9,,,,'--',,'--',
2,modular,386,o,img/target_9.png,60,6,,,,'--',,'--',
2,modular,387,e,img/target_3.png,60,9,,,,'--',,'--',
2,modular,388,u,img/target_7.png,60,0,,,,'--',,'--',
2,modular,389,w,img/target_2.png,60,1,,,,'--',,'--',
2,modular,390,u,img/target_7.png,60,0,,,,'--',,'--',
2,modular,391,i,img/target_8.png,60,3,,,,'--',,'--',
2,modular,392,w,img/target_2.png,60,1,,,,'--',,'--',
2,modular,393,v,img/target_5.png,60,2,,,,'--',,'--',
2,modular,394,u,img/target_7.png,60,0,,,,'--',,'--',
2,modular,395,v,img/target_5.png,60,2,,,,'--',,'--',
2,modular,396,w,img/target_2.png,60,1,,,,'--',,'--',
2,modular,397,q,img/target_1.png,60,4,,,,'--',,'--',
2,modular,398,w,img/target_2.png,60,1,,,,'--',,'--',
2,modular,399,q,img/target_1.png,60,4,,,,'--',,'--',
2,modular,400,i,img/target_8.png,60,3,,,,'--',,'--',
2,modular,401,v,img/target_5.png,60,2,,,,'--',,'--',
2,modular,402,u,img/target_7.png,60,0,,,,'--',,'--',
2,modular,403,v,img/target_5.png,60,2,,,,'--',,'--',
2,modular,404,w,img/target_2.png,60,1,,,,'--',,'--',
2,modular,405,q,img/target_1.png,60,4,,,,'--',,'--',
2,modular,406,i,img/target_8.png,60,3,,,,'--',,'--',
2,modular,407,w,img/target_2.png,60,1,,,,'--',,'--',
2,modular,408,i,img/target_8.png,60,3,,,,'--',,'--',
2,modular,409,w,img/target_2.png,60,1,,,,'--',,'--',
2,modular,410,v,img/target_5.png,60,2,,,,'--',,'--',
2,modular,411,q,img/target_1.png,60,4,,,,'--',,'--',
2,modular,412,v,img/target_5.png,60,2,,,,'--',,'--',
2,modular,413,i,img/target_8.png,60,3,,,,'--',,'--',
2,modular,414,u,img/target_7.png,60,0,,,,'--',,'--',
2,modular,415,w,img/target_2.png,60,1,,,,'--',,'--',
2,modular,416,i,img/target_8.png,60,3,,,,'--',,'--',
2,modular,417,u,img/target_7.png,60,0,,,,'--',,'--',
2,modular,418,v,img/target_5.png,60,2,,,,'--',,'--',
2,modular,419,u,img/target_7.png,60,0,,,,'--',,'--',
2,modular,420,i,img/target_8.png,60,3,,,,'--',,'--',
2,modular,421,v,img/target_5.png,60,2,,,,'--',,'--',
2,modular,422,i,img/target_8.png,60,3,,,,'--',,'--',
2,modular,423,u,img/target_7.png,60,0,,,,'--',,'--',
2,modular,424,e,img/target_3.png,60,9,,,,'--',,'--',
2,modular,425,u,img/target_7.png,60,0,,,,'--',,'--',
2,modular,426,w,img/target_2.png,60,1,,,,'--',,'--',
2,modular,427,i,img/target_8.png,60,3,,,,'--',,'--',
2,modular,428,v,img/target_5.png,60,2,,,,'--',,'--',
2,modular,429,u,img/target_7.png,60,0,,,,'--',,'--',
2,modular,430,e,img/target_3.png,60,9,,,,'--',,'--',
2,modular,431,r,img/target_4.png,60,7,,,,'--',,'--',
2,modular,432,p,img/target_10.png,60,8,,,,'--',,'--',
2,modular,433,e,img/target_3.png,60,9,,,,'--',,'--',
2,modular,434,o,img/target_9.png,60,6,,,,'--',,'--',
2,modular,435,b,img/target_6.png,60,5,,,,'--',,'--',
2,modular,436,r,img/target_4.png,60,7,,,,'--',,'--',
2,modular,437,o,img/target_9.png,60,6,,,,'--',,'--',
2,modular,438,r,img/target_4.png,60,7,,,,'--',,'--',
2,modular,439,p,img/target_10.png,60,8,,,,'--',,'--',
2,modular,440,e,img/target_3.png,60,9,,,,'--',,'--',
2,modular,441,o,img/target_9.png,60,6,,,,'--',,'--',
2,modular,442,p,img/target_10.png,60,8,,,,'--',,'--',
2,modular,443,o,img/target_9.png,60,6,,,,'--',,'--',
2,modular,444,b,img/target_6.png,60,5,,,,'--',,'--',
2,modular,445,q,img/target_1.png,60,4,,,,'--',,'--',
2,modular,446,v,img/target_5.png,60,2,,,,'--',,'--',
2,modular,447,w,img/target_2.png,60,1,,,,'--',,'--',
2,modular,448,v,img/target_5.png,60,2,,,,'--',,'--',
2,modular,449,w,img/target_2.png,60,1,,,,'--',,'--',
2,modular,450,u,img/target_7.png,60,0,,,,'--',,'--',
2,modular,451,w,img/target_2.png,60,1,,,,'--',,'--',
2,modular,452,u,img/target_7.png,60,0,,,,'--',,'--',
2,modular,453,w,img/target_2.png,60,1,,,,'--',,'--',
2,modular,454,v,img/target_5.png,60,2,,,,'--',,'--',
2,modular,455,w,img/target_2.png,60,1,,,,'--',,'--',
2,modular,456,v,img/target_5.png,60,2,,,,'--',,'--',
2,modular,457,w,img/target_2.png,60,1,,,,'--',,'--',
2,modular,458,v,img/target_5.png,60,2,,,,'--',,'--',
2,modular,459,q,img/target_1.png,60,4,,,,'--',,'--',
2,modular,460,v,img/target_5.png,60,2,,,,'--',,'--',
2,modular,461,q,img/target_1.png,60,4,,,,'--',,'--',
2,modular,462,v,img/target_5.png,60,2,,,,'--',,'--',
2,modular,463,i,img/target_8.png,60,3,,,,'--',,'--',
2,modular,464,v,img/target_5.png,60,2,,,,'--',,'--',
2,modular,465,q,img/target_1.png,60,4,,,,'--',,'--',
2,modular,466,v,img/target_5.png,60,2,,,,'--',,'--',
2,modular,467,q,img/target_1.png,60,4,,,,'--',,'--',
2,modular,468,b,img/target_6.png,60,5,,,,'--',,'--',
2,modular,469,r,img/target_4.png,60,7,,,,'--',,'--',
2,modular,470,o,img/target_9.png,60,6,,,,'--',,'--',
2,modular,471,b,img/target_6.png,60,5,,,,'--',,'--',
2,modular,472,o,img/target_9.png,60,6,,,,'--',,'--',
2,modular,473,r,img/target_4.png,60,7,,,,'--',,'--',
2,modular,474,e,img/target_3.png,60,9,,,,'--',,'--',
2,modular,475,u,img/target_7.png,60,0,,,,'--',,'--',
2,modular,476,e,img/target_3.png,60,9,,,,'--',,'--',
2,modular,477,o,img/target_9.png,60,6,,,,'--',,'--',
2,modular,478,p,img/target_10.png,60,8,,,,'--',,'--',
2,modular,479,b,img/target_6.png,60,5,,,,'--',,'--',
2,modular,480,p,img/target_10.png,60,8,,,,'--',,'--',
2,modular,481,o,img/target_9.png,60,6,,,,'--',,'--',
2,modular,482,r,img/target_4.png,60,7,,,,'--',,'--',
2,modular,483,p,img/target_10.png,60,8,,,,'--',,'--',
2,modular,484,b,img/target_6.png,60,5,,,,'--',,'--',
2,modular,485,p,img/target_10.png,60,8,,,,'--',,'--',
2,modular,486,e,img/target_3.png,60,9,,,,'--',,'--',
2,modular,487,r,img/target_4.png,60,7,,,,'--',,'--',
2,modular,488,p,img/target_10.png,60,8,,,,'--',,'--',
2,modular,489,r,img/target_4.png,60,7,,,,'--',,'--',
2,modular,490,p,img/target_10.png,60,8,,,,'--',,'--',
2,modular,491,b,img/target_6.png,60,5,,,,'--',,'--',
2,modular,492,r,img/target_4.png,60,7,,,,'--',,'--',
2,modular,493,e,img/target_3.png,60,9,,,,'--',,'--',
2,modular,494,p,img/target_10.png,60,8,,,,'--',,'--',
2,modular,495,b,img/target_6.png,60,5,,,,'--',,'--',
2,modular,496,r,img/target_4.png,60,7,,,,'--',,'--',
2,modular,497,e,img/target_3.png,60,9,,,,'--',,'--',
2,modular,498,r,img/target_4.png,60,7,,,,'--',,'--',
2,modular,499,p,img/target_10.png,60,8,,,,'--',,'--',
2,modular,500,o,img/target_9.png,60,6,,,,'--',,'--',
2,modular,501,b,img/target_6.png,60,5,,,,'--',,'--',
2,modular,502,p,img/target_10.png,60,8,,,,'--',,'--',
2,modular,503,r,img/target_4.png,60,7,,,,'--',,'--',
2,modular,504,b,img/target_6.png,60,5,,,,'--',,'--',
2,modular,505,o,img/target_9.png,60,6,,,,'--',,'--',
2,modular,506,r,img/target_4.png,60,7,,,,'--',,'--',
2,modular,507,p,img/target_10.png,60,8,,,,'--',,'--',
2,modular,508,r,img/target_4.png,60,7,,,,'--',,'--',
2,modular,509,b,img/target_6.png,60,5,,,,'--',,'--',
2,modular,510,q,img/target_1.png,60,4,,,,'--',,'--',
2,modular,511,v,img/target_5.png,60,2,,,,'--',,'--',
2,modular,512,u,img/target_7.png,60,0,,,,'--',,'--',
2,modular,513,i,img/target_8.png,60,3,,,,'--',,'--',
2,modular,514,u,img/target_7.png,60,0,,,,'--',,'--',
2,modular,515,e,img/target_3.png,60,9,,,,'--',,'--',
2,modular,516,o,img/target_9.png,60,6,,,,'--',,'--',
2,modular,517,e,img/target_3.png,60,9,,,,'--',,'--',
2,modular,518,o,img/target_9.png,60,6,,,,'--',,'--',
2,modular,519,b,img/target_6.png,60,5,,,,'--',,'--',
2,modular,520,q,img/target_1.png,60,4,,,,'--',,'--',
2,modular,521,i,img/target_8.png,60,3,,,,'--',,'--',
2,modular,522,u,img/target_7.png,60,0,,,,'--',,'--',
2,modular,523,i,img/target_8.png,60,3,,,,'--',,'--',
2,modular,524,q,img/target_1.png,60,4,,,,'--',,'--',
2,modular,525,i,img/target_8.png,60,3,,,,'--',,'--',
2,modular,526,u,img/target_7.png,60,0,,,,'--',,'--',
2,modular,527,e,img/target_3.png,60,9,,,,'--',,'--',
2,modular,528,r,img/target_4.png,60,7,,,,'--',,'--',
2,modular,529,o,img/target_9.png,60,6,,,,'--',,'--',
2,modular,530,r,img/target_4.png,60,7,,,,'--',,'--',
2,modular,531,p,img/target_10.png,60,8,,,,'--',,'--',
2,modular,532,b,img/target_6.png,60,5,,,,'--',,'--',
2,modular,533,r,img/target_4.png,60,7,,,,'--',,'--',
2,modular,534,p,img/target_10.png,60,8,,,,'--',,'--',
2,modular,535,b,img/target_6.png,60,5,,,,'--',,'--',
2,modular,536,q,img/target_1.png,60,4,,,,'--',,'--',
2,modular,537,i,img/target_8.png,60,3,,,,'--',,'--',
2,modular,538,w,img/target_2.png,60,1,,,,'--',,'--',
2,modular,539,u,img/target_7.png,60,0,,,,'--',,'--',
2,modular,540,v,img/target_5.png,60,2,,,,'--',,'--',
2,modular,541,w,img/target_2.png,60,1,,,,'--',,'--',
2,modular,542,q,img/target_1.png,60,4,,,,'--',,'--',
2,modular,543,i,img/target_8.png,60,3,,,,'--',,'--',
2,modular,544,w,img/target_2.png,60,1,,,,'--',,'--',
2,modular,545,i,img/target_8.png,60,3,,,,'--',,'--',
2,modular,546,v,img/target_5.png,60,2,,,,'--',,'--',
2,modular,547,i,img/target_8.png,60,3,,,,'--',,'--',
2,modular,548,v,img/target_5.png,60,2,,,,'--',,'--',
2,modular,549,q,img/target_1.png,60,4,,,,'--',,'--',
2,modular,550,w,img/target_2.png,60,1,,,,'--',,'--',
2,modular,551,q,img/target_1.png,60,4,,,,'--',,'--',
2,modular,552,v,img/target_5.png,60,2,,,,'--',,'--',
2,modular,553,q,img/target_1.png,60,4,,,,'--',,'--',
2,modular,554,b,img/target_6.png,60,5,,,,'--',,'--',
2,modular,555,o,img/target_9.png,60,6,,,,'--',,'--',
2,modular,556,p,img/target_10.png,60,8,,,,'--',,'--',
2,modular,557,r,img/target_4.png,60,7,,,,'--',,'--',
2,modular,558,e,img/target_3.png,60,9,,,,'--',,'--',
2,modular,559,u,img/target_7.png,60,0,,,,'--',,'--',
2,modular,560,i,img/target_8.png,60,3,,,,'--',,'--',
2,modular,561,q,img/target_1.png,60,4,,,,'--',,'--',
2,modular,562,b,img/target_6.png,60,5,,,,'--',,'--',
2,modular,563,o,img/target_9.png,60,6,,,,'--',,'--',
2,modular,564,p,img/target_10.png,60,8,,,,'--',,'--',
2,modular,565,r,img/target_4.png,60,7,,,,'--',,'--',
2,modular,566,o,img/target_9.png,60,6,,,,'--',,'--',
2,modular,567,p,img/target_10.png,60,8,,,,'--',,'--',
2,modular,568,e,img/target_3.png,60,9,,,,'--',,'--',
2,modular,569,u,img/target_7.png,60,0,,,,'--',,'--',
2,modular,570,v,img/target_5.png,60,2,,,,'--',,'--',
2,modular,571,w,img/target_2.png,60,1,,,,'--',,'--',
2,modular,572,q,img/target_1.png,60,4,,,,'--',,'--',
2,modular,573,b,img/target_6.png,60,5,,,,'--',,'--',
2,modular,574,p,img/target_10.png,60,8,,,,'--',,'--',
2,modular,575,r,img/target_4.png,60,7,,,,'--',,'--',
2,modular,576,p,img/target_10.png,60,8,,,,'--',,'--',
2,modular,577,b,img/target_6.png,60,5,,,,'--',,'--',
2,modular,578,q,img/target_1.png,60,4,,,,'--',,'--',
2,modular,579,w,img/target_2.png,60,1,,,,'--',,'--',
2,modular,580,v,img/target_5.png,60,2,,,,'--',,'--',
2,modular,581,u,img/target_7.png,60,0,,,,'--',,'--',
2,modular,582,i,img/target_8.png,60,3,,,,'--',,'--',
2,modular,583,u,img/target_7.png,60,0,,,,'--',,'--',
2,modular,584,v,img/target_5.png,60,2,,,,'--',,'--',
2,modular,585,w,img/target_2.png,60,1,,,,'--',,'--',
2,modular,586,v,img/target_5.png,60,2,,,,'--',,'--',
2,modular,587,w,img/target_2.png,60,1,,,,'--',,'--',
2,modular,588,i,img/target_8.png,60,3,,,,'--',,'--',
2,modular,589,v,img/target_5.png,60,2,,,,'--',,'--',
2,modular,590,w,img/target_2.png,60,1,,,,'--',,'--',
2,modular,591,u,img/target_7.png,60,0,,,,'--',,'--',
2,modular,592,i,img/target_8.png,60,3,,,,'--',,'--',
2,modular,593,w,img/target_2.png,60,1,,,,'--',,'--',
2,modular,594,v,img/target_5.png,60,2,,,,'--',,'--',
2,modular,595,w,img/target_2.png,60,1,,,,'--',,'--',
2,modular,596,u,img/target_7.png,60,0,,,,'--',,'--',
2,modular,597,v,img/target_5.png,60,2,,,,'--',,'--',
2,modular,598,u,img/target_7.png,60,0,,,,'--',,'--',
2,modular,599,e,img/target_3.png,60,9,,,,'--',,'--',
2,modular,600,p,img/target_10.png,60,8,,,,'--',,'--',
2,modular,601,b,img/target_6.png,60,5,,,,'--',,'--',
2,modular,602,o,img/target_9.png,60,6,,,,'--',,'--',
2,modular,603,r,img/target_4.png,60,7,,,,'--',,'--',
2,modular,604,o,img/target_9.png,60,6,,,,'--',,'--',
2,modular,605,r,img/target_4.png,60,7,,,,'--',,'--',
2,modular,606,o,img/target_9.png,60,6,,,,'--',,'--',
2,modular,607,r,img/target_4.png,60,7,,,,'--',,'--',
2,modular,608,b,img/target_6.png,60,5,,,,'--',,'--',
2,modular,609,p,img/target_10.png,60,8,,,,'--',,'--',
2,modular,610,e,img/target_3.png,60,9,,,,'--',,'--',
2,modular,611,o,img/target_9.png,60,6,,,,'--',,'--',
2,modular,612,e,img/target_3.png,60,9,,,,'--',,'--',
2,modular,613,r,img/target_4.png,60,7,,,,'--',,'--',
2,modular,614,e,img/target_3.png,60,9,,,,'--',,'--',
2,modular,615,o,img/target_9.png,60,6,,,,'--',,'--',
2,modular,616,e,img/target_3.png,60,9,,,,'--',,'--',
2,modular,617,o,img/target_9.png,60,6,,,,'--',,'--',
2,modular,618,e,img/target_3.png,60,9,,,,'--',,'--',
2,modular,619,r,img/target_4.png,60,7,,,,'--',,'--',
2,modular,620,e,img/target_3.png,60,9,,,,'--',,'--',
2,modular,621,p,img/target_10.png,60,8,,,,'--',,'--',
2,modular,622,o,img/target_9.png,60,6,,,,'--',,'--',
2,modular,623,r,img/target_4.png,60,7,,,,'--',,'--',
2,modular,624,p,img/target_10.png,60,8,,,,'--',,'--',
2,modular,625,r,img/target_4.png,60,7,,,,'--',,'--',
2,modular,626,b,img/target_6.png,60,5,,,,'--',,'--',
2,modular,627,o,img/target_9.png,60,6,,,,'--',,'--',
2,modular,628,b,img/target_6.png,60,5,,,,'--',,'--',
2,modular,629,q,img/target_1.png,60,4,,,,'--',,'--',
2,modular,630,b,img/target_6.png,60,5,,,,'--',,'--',
2,modular,631,o,img/target_9.png,60,6,,,,'--',,'--',
2,modular,632,p,img/target_10.png,60,8,,,,'--',,'--',
2,modular,633,r,img/target_4.png,60,7,,,,'--',,'--',
2,modular,634,e,img/target_3.png,60,9,,,,'--',,'--',
2,modular,635,r,img/target_4.png,60,7,,,,'--',,'--',
2,modular,636,e,img/target_3.png,60,9,,,,'--',,'--',
2,modular,637,o,img/target_9.png,60,6,,,,'--',,'--',
2,modular,638,r,img/target_4.png,60,7,,,,'--',,'--',
2,modular,639,b,img/target_6.png,60,5,,,,'--',,'--',
2,modular,640,p,img/target_10.png,60,8,,,,'--',,'--',
2,modular,641,o,img/target_9.png,60,6,,,,'--',,'--',
2,modular,642,p,img/target_10.png,60,8,,,,'--',,'--',
2,modular,643,r,img/target_4.png,60,7,,,,'--',,'--',
2,modular,644,p,img/target_10.png,60,8,,,,'--',,'--',
2,modular,645,e,img/target_3.png,60,9,,,,'--',,'--',
2,modular,646,r,img/target_4.png,60,7,,,,'--',,'--',
2,modular,647,b,img/target_6.png,60,5,,,,'--',,'--',
2,modular,648,o,img/target_9.png,60,6,,,,'--',,'--',
2,modular,649,e,img/target_3.png,60,9,,,,'--',,'--',
2,modular,650,r,img/target_4.png,60,7,,,,'--',,'--',
2,modular,651,e,img/target_3.png,60,9,,,,'--',,'--',
2,modular,652,r,img/target_4.png,60,7,,,,'--',,'--',
2,modular,653,b,img/target_6.png,60,5,,,,'--',,'--',
2,modular,654,p,img/target_10.png,60,8,,,,'--',,'--',
2,modular,655,o,img/target_9.png,60,6,,,,'--',,'--',
2,modular,656,r,img/target_4.png,60,7,,,,'--',,'--',
2,modular,657,b,img/target_6.png,60,5,,,,'--',,'--',
2,modular,658,p,img/target_10.png,60,8,,,,'--',,'--',
2,modular,659,r,img/target_4.png,60,7,,,,'--',,'--',
2,modular,660,o,img/target_9.png,60,6,,,,'--',,'--',
2,modular,661,r,img/target_4.png,60,7,,,,'--',,'--',
2,modular,662,p,img/target_10.png,60,8,,,,'--',,'--',
2,modular,663,r,img/target_4.png,60,7,,,,'--',,'--',
2,modular,664,b,img/target_6.png,60,5,,,,'--',,'--',
2,modular,665,r,img/target_4.png,60,7,,,,'--',,'--',
2,modular,666,p,img/target_10.png,60,8,,,,'--',,'--',
2,modular,667,b,img/target_6.png,60,5,,,,'--',,'--',
2,modular,668,p,img/target_10.png,60,8,,,,'--',,'--',
2,modular,669,o,img/target_9.png,60,6,,,,'--',,'--',
2,modular,670,b,img/target_6.png,60,5,,,,'--',,'--',
2,modular,671,p,img/target_10.png,60,8,,,,'--',,'--',
2,modular,672,r,img/target_4.png,60,7,,,,'--',,'--',
2,modular,673,p,img/target_10.png,60,8,,,,'--',,'--',
2,modular,674,b,img/target_6.png,60,5,,,,'--',,'--',
2,modular,675,p,img/target_10.png,60,8,,,,'--',,'--',
2,modular,676,b,img/target_6.png,60,5,,,,'--',,'--',
2,modular,677,p,img/target_10.png,60,8,,,,'--',,'--',
2,modular,678,b,img/target_6.png,60,5,,,,'--',,'--',
2,modular,679,p,img/target_10.png,60,8,,,,'--',,'--',
2,modular,680,r,img/target_4.png,60,7,,,,'--',,'--',
2,modular,681,o,img/target_9.png,60,6,,,,'--',,'--',
2,modular,682,r,img/target_4.png,60,7,,,,'--',,'--',
2,modular,683,b,img/target_6.png,60,5,,,,'--',,'--',
2,modular,684,p,img/target_10.png,60,8,,,,'--',,'--',
2,modular,685,o,img/target_9.png,60,6,,,,'--',,'--',
2,modular,686,b,img/target_6.png,60,5,,,,'--',,'--',
2,modular,687,q,img/target_1.png,60,4,,,,'--',,'--',
2,modular,688,b,img/target_6.png,60,5,,,,'--',,'--',
2,modular,689,p,img/target_10.png,60,8,,,,'--',,'--',
2,modular,690,b,img/target_6.png,60,5,,,,'--',,'--',
2,modular,691,r,img/target_4.png,60,7,,,,'--',,'--',
2,modular,692,e,img/target_3.png,60,9,,,,'--',,'--',
2,modular,693,p,img/target_10.png,60,8,,,,'--',,'--',
2,modular,694,b,img/target_6.png,60,5,,,,'--',,'--',
2,modular,695,p,img/target_10.png,60,8,,,,'--',,'--',
2,modular,696,e,img/target_3.png,60,9,,,,'--',,'--',
2,modular,697,p,img/target_10.png,60,8,,,,'--',,'--',
2,modular,698,o,img/target_9.png,60,6,,,,'--',,'--',
2,modular,699,r,img/target_4.png,60,7,,,,'--',,'--',
2,modular,700,o,img/target_9.png,60,6,,,,'--',,'--',
2,modular,701,r,img/target_4.png,60,7,,,,'--',,'--',
2,modular,702,o,img/target_9.png,60,6,,,,'--',,'--',
2,modular,703,r,img/target_4.png,60,7,,,,'--',,'--',
2,modular,704,p,img/target_10.png,60,8,,,,'--',,'--',
2,modular,705,o,img/target_9.png,60,6,,,,'--',,'--',
2,modular,706,r,img/target_4.png,60,7,,,,'--',,'--',
2,modular,707,o,img/target_9.png,60,6,,,,'--',,'--',
2,modular,708,r,img/target_4.png,60,7,,,,'--',,'--',
2,modular,709,p,img/target_10.png,60,8,,,,'--',,'--',
2,modular,710,r,img/target_4.png,60,7,,,,'--',,'--',
2,modular,711,e,img/target_3.png,60,9,,,,'--',,'--',
2,modular,712,u,img/target_7.png,60,0,,,,'--',,'--',
2,modular,713,i,img/target_8.png,60,3,,,,'--',,'--',
2,modular,714,q,img/target_1.png,60,4,,,,'--',,'--',
2,modular,715,v,img/target_5.png,60,2,,,,'--',,'--',
2,modular,716,w,img/target_2.png,60,1,,,,'--',,'--',
2,modular,717,u,img/target_7.png,60,0,,,,'--',,'--',
2,modular,718,v,img/target_5.png,60,2,,,,'--',,'--',
2,modular,719,q,img/target_1.png,60,4,,,,'--',,'--',
2,modular,720,w,img/target_2.png,60,1,,,,'--',,'--',
2,modular,721,i,img/target_8.png,60,3,,,,'--',,'--',
2,modular,722,v,img/target_5.png,60,2,,,,'--',,'--',
2,modular,723,q,img/target_1.png,60,4,,,,'--',,'--',
2,modular,724,v,img/target_5.png,60,2,,,,'--',,'--',
2,modular,725,q,img/target_1.png,60,4,,,,'--',,'--',
2,modular,726,v,img/target_5.png,60,2,,,,'--',,'--',
2,modular,727,u,img/target_7.png,60,0,,,,'--',,'--',
2,modular,728,i,img/target_8.png,60,3,,,,'--',,'--',
2,modular,729,u,img/target_7.png,60,0,,,,'--',,'--',
2,modular,730,v,img/target_5.png,60,2,,,,'--',,'--',
2,modular,731,u,img/target_7.png,60,0,,,,'--',,'--',
2,modular,732,v,img/target_5.png,60,2,,,,'--',,'--',
2,modular,733,u,img/target_7.png,60,0,,,,'--',,'--',
2,modular,734,v,img/target_5.png,60,2,,,,'--',,'--',
2,modular,735,w,img/target_2.png,60,1,,,,'--',,'--',
2,modular,736,u,img/target_7.png,60,0,,,,'--',,'--',
2,modular,737,v,img/target_5.png,60,2,,,,'--',,'--',
2,modular,738,q,img/target_1.png,60,4,,,,'--',,'--',
2,modular,739,b,img/target_6.png,60,5,,,,'--',,'--',
2,modular,740,o,img/target_9.png,60,6,,,,'--',,'--',
2,modular,741,r,img/target_4.png,60,7,,,,'--',,'--',
2,modular,742,b,img/target_6.png,60,5,,,,'--',,'--',
2,modular,743,o,img/target_9.png,60,6,,,,'--',,'--',
2,modular,744,r,img/target_4.png,60,7,,,,'--',,'--',
2,modular,745,o,img/target_9.png,60,6,,,,'--',,'--',
2,modular,746,e,img/target_3.png,60,9,,,,'--',,'--',
2,modular,747,u,img/target_7.png,60,0,,,,'--',,'--',
2,modular,748,i,img/target_8.png,60,3,,,,'--',,'--',
2,modular,749,q,img/target_1.png,60,4,,,,'--',,'--',
2,modular,750,i,img/target_8.png,60,3,,,,'--',,'--',
2,modular,751,v,img/target_5.png,60,2,,,,'--',,'--',
2,modular,752,i,img/target_8.png,60,3,,,,'--',,'--',
2,modular,753,u,img/target_7.png,60,0,,,,'--',,'--',
2,modular,754,v,img/target_5.png,60,2,,,,'--',,'--',
2,modular,755,u,img/target_7.png,60,0,,,,'--',,'--',
2,modular,756,w,img/target_2.png,60,1,,,,'--',,'--',
2,modular,757,v,img/target_5.png,60,2,,,,'--',,'--',
2,modular,758,u,img/target_7.png,60,0,,,,'--',,'--',
2,modular,759,v,img/target_5.png,60,2,,,,'--',,'--',
2,modular,760,i,img/target_8.png,60,3,,,,'--',,'--',
2,modular,761,q,img/target_1.png,60,4,,,,'--',,'--',
2,modular,762,i,img/target_8.png,60,3,,,,'--',,'--',
2,modular,763,q,img/target_1.png,60,4,,,,'--',,'--',
2,modular,764,b,img/target_6.png,60,5,,,,'--',,'--',
2,modular,765,r,img/target_4.png,60,7,,,,'--',,'--',
2,modular,766,o,img/target_9.png,60,6,,,,'--',,'--',
2,modular,767,e,img/target_3.png,60,9,,,,'--',,'--',
2,modular,768,o,img/target_9.png,60,6,,,,'--',,'--',
2,modular,769,e,img/target_3.png,60,9,,,,'--',,'--',
2,modular,770,o,img/target_9.png,60,6,,,,'--',,'--',
2,modular,771,p,img/target_10.png,60,8,,,,'--',,'--',
2,modular,772,r,img/target_4.png,60,7,,,,'--',,'--',
2,modular,773,b,img/target_6.png,60,5,,,,'--',,'--',
2,modular,774,r,img/target_4.png,60,7,,,,'--',,'--',
2,modular,775,p,img/target_10.png,60,8,,,,'--',,'--',
2,modular,776,r,img/target_4.png,60,7,,,,'--',,'--',
2,modular,777,p,img/target_10.png,60,8,,,,'--',,'--',
2,modular,778,e,img/target_3.png,60,9,,,,'--',,'--',
2,modular,779,r,img/target_4.png,60,7,,,,'--',,'--',
2,modular,780,b,img/target_6.png,60,5,,,,'--',,'--',
2,modular,781,o,img/target_9.png,60,6,,,,'--',,'--',
2,modular,782,r,img/target_4.png,60,7,,,,'--',,'--',
2,modular,783,p,img/target_10.png,60,8,,,,'--',,'--',
2,modular,784,o,img/target_9.png,60,6,,,,'--',,'--',
2,modular,785,b,img/target_6.png,60,5,,,,'--',,'--',
2,modular,786,r,img/target_4.png,60,7,,,,'--',,'--',
2,modular,787,p,img/target_10.png,60,8,,,,'--',,'--',
2,modular,788,r,img/target_4.png,60,7,,,,'--',,'--',
2,modular,789,e,img/target_3.png,60,9,,,,'--',,'--',
2,modular,790,r,img/target_4.png,60,7,,,,'--',,'--',
2,modular,791,e,img/target_3.png,60,9,,,,'--',,'--',
2,modular,792,u,img/target_7.png,60,0,,,,'--',,'--',
2,modular,793,e,img/target_3.png,60,9,,,,'--',,'--',
2,modular,794,o,img/target_9.png,60,6,,,,'--',,'--',
2,modular,795,b,img/target_6.png,60,5,,,,'--',,'--',
2,modular,796,p,img/target_10.png,60,8,,,,'--',,'--',
2,modular,797,r,img/target_4.png,60,7,,,,'--',,'--',
2,modular,798,e,img/target_3.png,60,9,,,,'--',,'--',
2,modular,799,o,img/target_9.png,60,6,,,,'--',,'--',
2,modular,800,r,img/target_4.png,60,7,,,,'--',,'--',
2,modular,801,o,img/target_9.png,60,6,,,,'--',,'--',
2,modular,802,e,img/target_3.png,60,9,,,,'--',,'--',
2,modular,803,r,img/target_4.png,60,7,,,,'--',,'--',
2,modular,804,b,img/target_6.png,60,5,,,,'--',,'--',
2,modular,805,o,img/target_9.png,60,6,,,,'--',,'--',
2,modular,806,b,img/target_6.png,60,5,,,,'--',,'--',
2,modular,807,p,img/target_10.png,60,8,,,,'--',,'--',
2,modular,808,r,img/target_4.png,60,7,,,,'--',,'--',
2,modular,809,p,img/target_10.png,60,8,,,,'--',,'--',
2,modular,810,r,img/target_4.png,60,7,,,,'--',,'--',
2,modular,811,o,img/target_9.png,60,6,,,,'--',,'--',
2,modular,812,b,img/target_6.png,60,5,,,,'--',,'--',
2,modular,813,o,img/target_9.png,60,6,,,,'--',,'--',
2,modular,814,p,img/target_10.png,60,8,,,,'--',,'--',
2,modular,815,r,img/target_4.png,60,7,,,,'--',,'--',
2,modular,816,o,img/target_9.png,60,6,,,,'--',,'--',
2,modular,817,r,img/target_4.png,60,7,,,,'--',,'--',
2,modular,818,e,img/target_3.png,60,9,,,,'--',,'--',
2,modular,819,r,img/target_4.png,60,7,,,,'--',,'--',
2,modular,820,o,img/target_9.png,60,6,,,,'--',,'--',
2,modular,821,r,img/target_4.png,60,7,,,,'--',,'--',
2,modular,822,b,img/target_6.png,60,5,,,,'--',,'--',
2,modular,823,p,img/target_10.png,60,8,,,,'--',,'--',
2,modular,824,o,img/target_9.png,60,6,,,,'--',,'--',
2,modular,825,r,img/target_4.png,60,7,,,,'--',,'--',
2,modular,826,p,img/target_10.png,60,8,,,,'--',,'--',
2,modular,827,o,img/target_9.png,60,6,,,,'--',,'--',
2,modular,828,e,img/target_3.png,60,9,,,,'--',,'--',
2,modular,829,r,img/target_4.png,60,7,,,,'--',,'--',
2,modular,830,p,img/target_10.png,60,8,,,,'--',,'--',
2,modular,831,e,img/target_3.png,60,9,,,,'--',,'--',
2,modular,832,u,img/target_7.png,60,0,,,,'--',,'--',
2,modular,833,i,img/target_8.png,60,3,,,,'--',,'--',
2,modular,834,q,img/target_1.png,60,4,,,,'--',,'--',
2,modular,835,b,img/target_6.png,60,5,,,,'--',,'--',
2,modular,836,o,img/target_9.png,60,6,,,,'--',,'--',
2,modular,837,p,img/target_10.png,60,8,,,,'--',,'--',
2,modular,838,o,img/target_9.png,60,6,,,,'--',,'--',
2,modular,839,b,img/target_6.png,60,5,,,,'--',,'--',
2,modular,840,o,img/target_9.png,60,6,,,,'--',,'--',
2,modular,841,r,img/target_4.png,60,7,,,,'--',,'--',
2,modular,842,e,img/target_3.png,60,9,,,,'--',,'--',
2,modular,843,u,img/target_7.png,60,0,,,,'--',,'--',
2,modular,844,v,img/target_5.png,60,2,,,,'--',,'--',
2,modular,845,u,img/target_7.png,60,0,,,,'--',,'--',
2,modular,846,v,img/target_5.png,60,2,,,,'--',,'--',
2,modular,847,i,img/target_8.png,60,3,,,,'--',,'--',
2,modular,848,w,img/target_2.png,60,1,,,,'--',,'--',
2,modular,849,q,img/target_1.png,60,4,,,,'--',,'--',
2,modular,850,w,img/target_2.png,60,1,,,,'--',,'--',
2,modular,851,q,img/target_1.png,60,4,,,,'--',,'--',
2,modular,852,v,img/target_5.png,60,2,,,,'--',,'--',
2,modular,853,i,img/target_8.png,60,3,,,,'--',,'--',
2,modular,854,q,img/target_1.png,60,4,,,,'--',,'--',
2,modular,855,b,img/target_6.png,60,5,,,,'--',,'--',
2,modular,856,p,img/target_10.png,60,8,,,,'--',,'--',
2,modular,857,r,img/target_4.png,60,7,,,,'--',,'--',
2,modular,858,p,img/target_10.png,60,8,,,,'--',,'--',
2,modular,859,e,img/target_3.png,60,9,,,,'--',,'--',
2,modular,860,o,img/target_9.png,60,6,,,,'--',,'--',
2,modular,861,p,img/target_10.png,60,8,,,,'--',,'--',
2,modular,862,b,img/target_6.png,60,5,,,,'--',,'--',
2,modular,863,o,img/target_9.png,60,6,,,,'--',,'--',
2,modular,864,p,img/target_10.png,60,8,,,,'--',,'--',
2,modular,865,o,img/target_9.png,60,6,,,,'--',,'--',
2,modular,866,p,img/target_10.png,60,8,,,,'--',,'--',
2,modular,867,e,img/target_3.png,60,9,,,,'--',,'--',
2,modular,868,o,img/target_9.png,60,6,,,,'--',,'--',
2,modular,869,p,img/target_10.png,60,8,,,,'--',,'--',
2,modular,870,b,img/target_6.png,60,5,,,,'--',,'--',
2,modular,871,r,img/target_4.png,60,7,,,,'--',,'--',
2,modular,872,e,img/target_3.png,60,9,,,,'--',,'--',
2,modular,873,p,img/target_10.png,60,8,,,,'--',,'--',
2,modular,874,o,img/target_9.png,60,6,,,,'--',,'--',
2,modular,875,r,img/target_4.png,60,7,,,,'--',,'--',
2,modular,876,o,img/target_9.png,60,6,,,,'--',,'--',
2,modular,877,p,img/target_10.png,60,8,,,,'--',,'--',
2,modular,878,b,img/target_6.png,60,5,,,,'--',,'--',
2,modular,879,r,img/target_4.png,60,7,,,,'--',,'--',
2,modular,880,b,img/target_6.png,60,5,,,,'--',,'--',
2,modular,881,q,img/target_1.png,60,4,,,,'--',,'--',
2,modular,882,v,img/target_5.png,60,2,,,,'--',,'--',
2,modular,883,i,img/target_8.png,60,3,,,,'--',,'--',
2,modular,884,w,img/target_2.png,60,1,,,,'--',,'--',
2,modular,885,u,img/target_7.png,60,0,,,,'--',,'--',
2,modular,886,v,img/target_5.png,60,2,,,,'--',,'--',
2,modular,887,u,img/target_7.png,60,0,,,,'--',,'--',
2,modular,888,e,img/target_3.png,60,9,,,,'--',,'--',
2,modular,889,r,img/target_4.png,60,7,,,,'--',,'--',
2,modular,890,b,img/target_6.png,60,5,,,,'--',,'--',
2,modular,891,r,img/target_4.png,60,7,,,,'--',,'--',
2,modular,892,o,img/target_9.png,60,6,,,,'--',,'--',
2,modular,893,e,img/target_3.png,60,9,,,,'--',,'--',
2,modular,894,p,img/target_10.png,60,8,,,,'--',,'--',
2,modular,895,e,img/target_3.png,60,9,,,,'--',,'--',
2,modular,896,u,img/target_7.png,60,0,,,,'--',,'--',
2,modular,897,e,img/target_3.png,60,9,,,,'--',,'--',
2,modular,898,u,img/target_7.png,60,0,,,,'--',,'--',
2,modular,899,v,img/target_5.png,60,2,,,,'--',,'--',
2,modular,900,i,img/target_8.png,60,3,,,,'--',,'--',
2,modular,901,q,img/target_1.png,60,4,,,,'--',,'--',
2,modular,902,i,img/target_8.png,60,3,,,,'--',,'--',
2,modular,903,u,img/target_7.png,60,0,,,,'--',,'--',
2,modular,904,e,img/target_3.png,60,9,,,,'--',,'--',
2,modular,905,p,img/target_10.png,60,8,,,,'--',,'--',
2,modular,906,r,img/target_4.png,60,7,,,,'--',,'--',
2,modular,907,e,img/target_3.png,60,9,,,,'--',,'--',
2,modular,908,p,img/target_10.png,60,8,,,,'--',,'--',
2,modular,909,b,img/target_6.png,60,5,,,,'--',,'--',
2,modular,910,q,img/target_1.png,60,4,,,,'--',,'--',
2,modular,911,v,img/target_5.png,60,2,,,,'--',,'--',
2,modular,912,q,img/target_1.png,60,4,,,,'--',,'--',
2,modular,913,i,img/target_8.png,60,3,,,,'--',,'--',
2,modular,914,v,img/target_5.png,60,2,,,,'--',,'--',
2,modular,915,i,img/target_8.png,60,3,,,,'--',,'--',
2,modular,916,q,img/target_1.png,60,4,,,,'--',,'--',
2,modular,917,i,img/target_8.png,60,3,,,,'--',,'--',
2,modular,918,q,img/target_1.png,60,4,,,,'--',,'--',
2,modular,919,b,img/target_6.png,60,5,,,,'--',,'--',
2,modular,920,p,img/target_10.png,60,8,,,,'--',,'--',
2,modular,921,o,img/target_9.png,60,6,,,,'--',,'--',
2,modular,922,r,img/target_4.png,60,7,,,,'--',,'--',
2,modular,923,o,img/target_9.png,60,6,,,,'--',,'--',
2,modular,924,b,img/target_6.png,60,5,,,,'--',,'--',
2,modular,925,r,img/target_4.png,60,7,,,,'--',,'--',
2,modular,926,b,img/target_6.png,60,5,,,,'--',,'--',
2,modular,927,p,img/target_10.png,60,8,,,,'--',,'--',
2,modular,928,b,img/target_6.png,60,5,,,,'--',,'--',
2,modular,929,o,img/target_9.png,60,6,,,,'--',,'--',
2,modular,930,r,img/target_4.png,60,7,,,,'--',,'--',
2,modular,931,e,img/target_3.png,60,9,,,,'--',,'--',
2,modular,932,r,img/target_4.png,60,7,,,,'--',,'--',
2,modular,933,o,img/target_9.png,60,6,,,,'--',,'--',
2,modular,934,p,img/target_10.png,60,8,,,,'--',,'--',
2,modular,935,e,img/target_3.png,60,9,,,,'--',,'--',
2,modular,936,p,img/target_10.png,60,8,,,,'--',,'--',
2,modular,937,e,img/target_3.png,60,9,,,,'--',,'--',
2,modular,938,p,img/target_10.png,60,8,,,,'--',,'--',
2,modular,939,e,img/target_3.png,60,9,,,,'--',,'--',
2,modular,940,p,img/target_10.png,60,8,,,,'--',,'--',
2,modular,941,r,img/target_4.png,60,7,,,,'--',,'--',
2,modular,942,o,img/target_9.png,60,6,,,,'--',,'--',
2,modular,943,e,img/target_3.png,60,9,,,,'--',,'--',
2,modular,944,r,img/target_4.png,60,7,,,,'--',,'--',
2,modular,945,e,img/target_3.png,60,9,,,,'--',,'--',
2,modular,946,o,img/target_9.png,60,6,,,,'--',,'--',
2,modular,947,p,img/target_10.png,60,8,,,,'--',,'--',
2,modular,948,e,img/target_3.png,60,9,,,,'--',,'--',
2,modular,949,o,img/target_9.png,60,6,,,,'--',,'--',
2,modular,950,e,img/target_3.png,60,9,,,,'--',,'--',
2,modular,951,r,img/target_4.png,60,7,,,,'--',,'--',
2,modular,952,e,img/target_3.png,60,9,,,,'--',,'--',
2,modular,953,p,img/target_10.png,60,8,,,,'--',,'--',
2,modular,954,e,img/target_3.png,60,9,,,,'--',,'--',
2,modular,955,o,img/target_9.png,60,6,,,,'--',,'--',
2,modular,956,r,img/target_4.png,60,7,,,,'--',,'--',
2,modular,957,b,img/target_6.png,60,5,,,,'--',,'--',
2,modular,958,o,img/target_9.png,60,6,,,,'--',,'--',
2,modular,959,r,img/target_4.png,60,7,,,,'--',,'--',
2,modular,960,b,img/target_6.png,60,5,,,,'--',,'--',
2,modular,961,p,img/target_10.png,60,8,,,,'--',,'--',
2,modular,962,b,img/target_6.png,60,5,,,,'--',,'--',
2,modular,963,o,img/target_9.png,60,6,,,,'--',,'--',
2,modular,964,p,img/target_10.png,60,8,,,,'--',,'--',
2,modular,965,o,img/target_9.png,60,6,,,,'--',,'--',
2,modular,966,b,img/target_6.png,60,5,,,,'--',,'--',
2,modular,967,q,img/target_1.png,60,4,,,,'--',,'--',
2,modular,968,b,img/target_6.png,60,5,,,,'--',,'--',
2,modular,969,r,img/target_4.png,60,7,,,,'--',,'--',
2,modular,970,b,img/target_6.png,60,5,,,,'--',,'--',
2,modular,971,r,img/target_4.png,60,7,,,,'--',,'--',
2,modular,972,o,img/target_9.png,60,6,,,,'--',,'--',
2,modular,973,e,img/target_3.png,60,9,,,,'--',,'--',
2,modular,974,u,img/target_7.png,60,0,,,,'--',,'--',
2,modular,975,i,img/target_8.png,60,3,,,,'--',,'--',
2,modular,976,q,img/target_1.png,60,4,,,,'--',,'--',
2,modular,977,w,img/target_2.png,60,1,,,,'--',,'--',
2,modular,978,q,img/target_1.png,60,4,,,,'--',,'--',
2,modular,979,v,img/target_5.png,60,2,,,,'--',,'--',
2,modular,980,i,img/target_8.png,60,3,,,,'--',,'--',
2,modular,981,w,img/target_2.png,60,1,,,,'--',,'--',
2,modular,982,q,img/target_1.png,60,4,,,,'--',,'--',
2,modular,983,b,img/target_6.png,60,5,,,,'--',,'--',
2,modular,984,p,img/target_10.png,60,8,,,,'--',,'--',
2,modular,985,e,img/target_3.png,60,9,,,,'--',,'--',
2,modular,986,p,img/target_10.png,60,8,,,,'--',,'--',
2,modular,987,r,img/target_4.png,60,7,,,,'--',,'--',
2,modular,988,p,img/target_10.png,60,8,,,,'--',,'--',
2,modular,989,e,img/target_3.png,60,9,,,,'--',,'--',
2,modular,990,r,img/target_4.png,60,7,,,,'--',,'--',
2,modular,991,e,img/target_3.png,60,9,,,,'--',,'--',
2,modular,992,p,img/target_10.png,60,8,,,,'--',,'--',
2,modular,993,r,img/target_4.png,60,7,,,,'--',,'--',
2,modular,994,p,img/target_10.png,60,8,,,,'--',,'--',
2,modular,995,o,img/target_9.png,60,6,,,,'--',,'--',
2,modular,996,p,img/target_10.png,60,8,,,,'--',,'--',
2,modular,997,e,img/target_3.png,60,9,,,,'--',,'--',
2,modular,998,u,img/target_7.png,60,0,,,,'--',,'--',
2,modular,999,v,img/target_5.png,60,2,,,,'--',,'--',
2,modular,1000,q,img/target_1.png,60,4,,,,'--',,'--',

extraInfo
START,1.4066696167e-05
