respL,graph,trialNum,path,pID,respR,walk,ISI_raw,correct_raw,onset_raw,resp_raw,rt_raw,order
"['s', 'space']",modular,1,img/target_12.png,48,"['j', 'semicolon']",6,0.05000000074505806,1.0,0.006302833557128906,"['s', 'space']",2.049031972885132,0.0
"['a', 'space']",modular,2,img/target_9.png,48,"['space', 'semicolon']",5,0.05000000074505806,1.0,2.172247886657715,"['a', 'space']",0.99605393409729,1.0
"['f', 'space']",modular,3,img/target_15.png,48,"['l', 'semicolon']",4,0.05000000074505806,0.0,3.2554008960723877,"['f', 'space']",0.8640930652618408,2.0
"['a', 'd']",modular,4,img/target_7.png,48,"['space', 'k']",1,0.05000000074505806,1.0,5.405061721801758,"['a', 'd']",0.9710988998413086,3.0
"['f', 'space']",modular,5,img/target_15.png,48,"['l', 'semicolon']",4,0.05000000074505806,1.0,6.472692966461182,"['f', 'space']",0.7662880420684814,4.0
"['a', 'space']",modular,6,img/target_9.png,48,"['space', 'semicolon']",5,0.05000000074505806,1.0,7.33984899520874,"['a', 'space']",0.6591649055480957,5.0
"['s', 'f']",modular,7,img/target_11.png,48,"['j', 'l']",8,0.05000000074505806,1.0,8.091381072998047,"['f', 's']",0.9716100692749023,6.0
"['s', 'space']",modular,8,img/target_12.png,48,"['j', 'semicolon']",6,0.05000000074505806,1.0,9.156913757324219,"['s', 'space']",1.050717830657959,7.0
"['s', 'f']",modular,9,img/target_11.png,48,"['j', 'l']",8,0.05000000074505806,1.0,10.305120468139648,"['f', 's']",0.693666934967041,8.0
"['a', 's']",modular,10,img/target_6.png,48,"['space', 'j']",9,0.05000000074505806,1.0,11.088768005371094,"['a', 's']",0.7112178802490234,9.0
"['s', 'd']",modular,11,img/target_10.png,48,"['j', 'k']",7,0.05000000074505806,1.0,11.888660430908203,"['d', 's']",0.7353370189666748,10.0
"['a', 'space']",modular,12,img/target_9.png,48,"['space', 'semicolon']",5,0.05000000074505806,1.0,12.722034454345703,"['a', 'space']",0.7418398857116699,11.0
"['s', 'f']",modular,13,img/target_11.png,48,"['j', 'l']",8,0.05000000074505806,1.0,13.555980682373047,"['f', 's']",1.018765926361084,12.0
"['a', 's']",modular,14,img/target_6.png,48,"['space', 'j']",9,0.05000000074505806,1.0,14.672338485717773,"['a', 's']",0.8155169486999512,13.0
"['d', 'space']",modular,15,img/target_14.png,48,"['k', 'semicolon']",0,0.05000000074505806,1.0,15.572044372558594,"['d', 'space']",0.890625,14.0
"['a', 'd']",modular,16,img/target_7.png,48,"['space', 'k']",1,0.05000000074505806,1.0,16.55720329284668,"['a', 'd']",1.0416200160980225,15.0
"['a', 'f']",modular,17,img/target_8.png,48,"['space', 'l']",3,0.05000000074505806,1.0,17.688739776611328,"['a', 'f']",0.7660081386566162,16.0
"['d', 'space']",modular,18,img/target_14.png,48,"['k', 'semicolon']",0,0.05000000074505806,1.0,18.556310653686523,"['d', 'space']",0.7310209274291992,17.0
"['a', 'f']",modular,19,img/target_8.png,48,"['space', 'l']",3,0.05000000074505806,1.0,19.389297485351562,"['a', 'f']",0.9303450584411621,18.0
"['a', 'd']",modular,20,img/target_7.png,48,"['space', 'k']",1,0.05000000074505806,1.0,20.40619468688965,"['a', 'd']",0.7763419151306152,19.0
"['a', 'f']",modular,21,img/target_8.png,48,"['space', 'l']",3,0.05000000074505806,1.0,21.27222442626953,"['a', 'f']",0.7271060943603516,20.0
"['d', 'f']",modular,22,img/target_13.png,48,"['k', 'l']",2,0.05000000074505806,1.0,22.09046745300293,"['d', 'f']",0.6200659275054932,21.0
"['a', 'd']",modular,23,img/target_7.png,48,"['space', 'k']",1,0.05000000074505806,1.0,22.808692932128906,"['a', 'd']",0.8389110565185547,22.0
"['f', 'space']",modular,24,img/target_15.png,48,"['l', 'semicolon']",4,0.05000000074505806,1.0,23.739646911621094,"['f', 'space']",0.7796800136566162,23.0
"['a', 'f']",modular,25,img/target_8.png,48,"['space', 'l']",3,0.05000000074505806,1.0,24.62366485595703,"['a', 'f']",0.7586479187011719,24.0
"['f', 'space']",modular,26,img/target_15.png,48,"['l', 'semicolon']",4,0.05000000074505806,1.0,25.472761154174805,"['f', 'space']",0.6777009963989258,25.0
"['a', 'f']",modular,27,img/target_8.png,48,"['space', 'l']",3,0.05000000074505806,1.0,26.23967742919922,"['a', 'f']",0.7434329986572266,26.0
"['d', 'space']",modular,28,img/target_14.png,48,"['k', 'semicolon']",0,0.05000000074505806,1.0,27.07304573059082,"['d', 'space']",0.7892618179321289,27.0
"['a', 's']",modular,29,img/target_6.png,48,"['space', 'j']",9,0.05000000074505806,1.0,27.95746421813965,"['a', 's']",0.7289760112762451,28.0
"['d', 'space']",modular,30,img/target_14.png,48,"['k', 'semicolon']",0,0.05000000074505806,1.0,28.773235321044922,"['d', 'space']",0.7050900459289551,29.0
"['a', 'f']",modular,31,img/target_8.png,48,"['space', 'l']",3,0.05000000074505806,1.0,29.574140548706055,"['a', 'f']",0.6640238761901855,30.0
"['f', 'space']",modular,32,img/target_15.png,48,"['l', 'semicolon']",4,0.05000000074505806,1.0,30.341020584106445,"['f', 'space']",0.7212162017822266,31.0
"['a', 'd']",modular,33,img/target_7.png,48,"['space', 'k']",1,0.05000000074505806,1.0,31.157634735107422,"['a', 'd']",0.6653578281402588,32.0
"['d', 'f']",modular,34,img/target_13.png,48,"['k', 'l']",2,0.05000000074505806,1.0,31.907329559326172,"['d', 'f']",0.8108170032501221,33.0
"['a', 'f']",modular,35,img/target_8.png,48,"['space', 'l']",3,0.05000000074505806,1.0,32.807456970214844,"['a', 'f']",0.9915511608123779,34.0
"['d', 'f']",modular,36,img/target_13.png,48,"['k', 'l']",2,0.05000000074505806,1.0,33.89072036743164,"['d', 'f']",0.6833539009094238,35.0
"['a', 'd']",modular,37,img/target_7.png,48,"['space', 'k']",1,0.05000000074505806,1.0,34.65717697143555,"['a', 'd']",0.7260339260101318,36.0
"['d', 'f']",modular,38,img/target_13.png,48,"['k', 'l']",2,0.05000000074505806,1.0,35.47441101074219,"['d', 'f']",0.6121881008148193,37.0
"['d', 'space']",modular,39,img/target_14.png,48,"['k', 'semicolon']",0,0.05000000074505806,1.0,36.17377471923828,"['d', 'space']",0.7051198482513428,38.0
"['a', 's']",modular,40,img/target_6.png,48,"['space', 'j']",9,0.05000000074505806,0.0,36.973724365234375,"['a', 's']",0.6169657707214355,39.0
"['s', 'space']",modular,41,img/target_12.png,48,"['j', 'semicolon']",6,0.05000000074505806,1.0,38.29091262817383,"['s', 'space']",1.0039479732513428,40.0
"['a', 'space']",modular,42,img/target_9.png,48,"['space', 'semicolon']",5,0.05000000074505806,0.0,39.39155578613281,"['a', 'space']",0.8634231090545654,41.0
"['s', 'd']",modular,43,img/target_10.png,48,"['j', 'k']",7,0.05000000074505806,1.0,41.94227600097656,"['d', 's']",0.7354550361633301,42.0
"['a', 's']",modular,44,img/target_6.png,48,"['space', 'j']",9,0.05000000074505806,1.0,42.775577545166016,"['a', 's']",0.6941430568695068,43.0
"['s', 'f']",modular,45,img/target_11.png,48,"['j', 'l']",8,0.05000000074505806,1.0,43.55909729003906,"['f', 's']",1.0787482261657715,44.0
"['a', 's']",modular,46,img/target_6.png,48,"['space', 'j']",9,0.05000000074505806,1.0,44.726043701171875,"['a', 's']",0.6405370235443115,45.0
"['s', 'f']",modular,47,img/target_11.png,48,"['j', 'l']",8,0.05000000074505806,1.0,45.459129333496094,"['f', 's']",0.8111999034881592,46.0
"['a', 'space']",modular,48,img/target_9.png,48,"['space', 'semicolon']",5,0.05000000074505806,1.0,46.358463287353516,"['a', 'space']",0.6643011569976807,47.0
"['s', 'space']",modular,49,img/target_12.png,48,"['j', 'semicolon']",6,0.05000000074505806,0.0,47.125492095947266,"['s', 'space']",0.6412949562072754,48.0
"['s', 'f']",modular,50,img/target_11.png,48,"['j', 'l']",8,0.05000000074505806,1.0,48.408287048339844,"['f', 's']",0.8052258491516113,49.0
"['s', 'space']",modular,51,img/target_12.png,48,"['j', 'semicolon']",6,0.05000000074505806,1.0,49.30929946899414,"['s', 'space']",0.7132568359375,50.0
"['s', 'd']",modular,52,img/target_10.png,48,"['j', 'k']",7,0.05000000074505806,1.0,50.12512969970703,"['d', 's']",0.6322188377380371,51.0
"['s', 'space']",modular,53,img/target_12.png,48,"['j', 'semicolon']",6,0.05000000074505806,1.0,50.85962677001953,"['s', 'space']",0.691176176071167,52.0
"['s', 'f']",modular,54,img/target_11.png,48,"['j', 'l']",8,0.05000000074505806,1.0,51.642478942871094,"['f', 's']",0.7076971530914307,53.0
"['a', 'space']",modular,55,img/target_9.png,48,"['space', 'semicolon']",5,0.05000000074505806,1.0,52.44265365600586,"['a', 'space']",0.731748104095459,54.0
"['f', 'space']",modular,56,img/target_15.png,48,"['l', 'semicolon']",4,0.05000000074505806,1.0,53.25984573364258,"['f', 'space']",0.8826749324798584,55.0
"['a', 'd']",modular,57,img/target_7.png,48,"['space', 'k']",1,0.05000000074505806,1.0,54.24304962158203,"['a', 'd']",0.8743391036987305,56.0
"['d', 'f']",modular,58,img/target_13.png,48,"['k', 'l']",2,0.05000000074505806,1.0,55.20986557006836,"['d', 'f']",0.6994040012359619,57.0
"['a', 'd']",modular,59,img/target_7.png,48,"['space', 'k']",1,0.05000000074505806,0.0,56.00933074951172,"['a', 'd']",0.5720791816711426,58.0
"['a', 'f']",modular,60,img/target_8.png,48,"['space', 'l']",3,0.05000000074505806,1.0,57.37596130371094,"['a', 'f']",0.7653892040252686,59.0
"['a', 'd']",modular,61,img/target_7.png,48,"['space', 'k']",1,0.05000000074505806,0.0,58.24320983886719,"['a', 'd']",0.8178749084472656,60.0
"['d', 'space']",modular,62,img/target_14.png,48,"['k', 'semicolon']",0,0.05000000074505806,1.0,59.77724838256836,"['d', 'space']",0.8288018703460693,61.0
"['a', 'f']",modular,63,img/target_8.png,48,"['space', 'l']",3,0.05000000074505806,0.0,60.69284439086914,"['a', 'f']",0.737220048904419,62.0
"['a', 'd']",modular,64,img/target_7.png,48,"['space', 'k']",1,0.05000000074505806,1.0,61.92612075805664,"['a', 'd']",0.9028210639953613,63.0
"['d', 'space']",modular,65,img/target_14.png,48,"['k', 'semicolon']",0,0.05000000074505806,1.0,62.927364349365234,"['d', 'space']",0.7895340919494629,64.0
"['a', 's']",modular,66,img/target_6.png,48,"['space', 'j']",9,0.05000000074505806,1.0,63.81037139892578,"['a', 's']",0.7225339412689209,65.0
"['s', 'f']",modular,67,img/target_11.png,48,"['j', 'l']",8,0.05000000074505806,1.0,64.62708282470703,"['f', 's']",0.9069299697875977,66.0
"['s', 'space']",modular,68,img/target_12.png,48,"['j', 'semicolon']",6,0.05000000074505806,1.0,65.62718963623047,"['s', 'space']",0.7947499752044678,67.0
"['a', 's']",modular,69,img/target_6.png,48,"['space', 'j']",9,0.05000000074505806,1.0,66.51016235351562,"['a', 's']",0.6558120250701904,68.0
"['s', 'd']",modular,70,img/target_10.png,48,"['j', 'k']",7,0.05000000074505806,1.0,67.26072692871094,"['d', 's']",0.6481049060821533,69.0
"['a', 'space']",modular,71,img/target_9.png,48,"['space', 'semicolon']",5,0.05000000074505806,0.0,68.01132202148438,"['a', 'space']",0.6905679702758789,70.0
"['s', 'space']",modular,72,img/target_12.png,48,"['j', 'semicolon']",6,0.05000000074505806,1.0,69.326904296875,"['s', 'space']",0.7419469356536865,71.0
"['a', 's']",modular,73,img/target_6.png,48,"['space', 'j']",9,0.05000000074505806,1.0,70.1610107421875,"['a', 's']",0.6276850700378418,72.0
"['s', 'space']",modular,74,img/target_12.png,48,"['j', 'semicolon']",6,0.05000000074505806,1.0,70.8779067993164,"['s', 'space']",0.7828989028930664,73.0
"['s', 'd']",modular,75,img/target_10.png,48,"['j', 'k']",7,0.05000000074505806,1.0,71.76114654541016,"['d', 's']",0.6926760673522949,74.0
"['s', 'space']",modular,76,img/target_12.png,48,"['j', 'semicolon']",6,0.05000000074505806,1.0,72.54385375976562,"['s', 'space']",0.6850860118865967,75.0
"['s', 'f']",modular,77,img/target_11.png,48,"['j', 'l']",8,0.05000000074505806,1.0,73.32846069335938,"['f', 's']",0.8521599769592285,76.0
"['s', 'space']",modular,78,img/target_12.png,48,"['j', 'semicolon']",6,0.05000000074505806,1.0,74.27816772460938,"['s', 'space']",0.7275199890136719,77.0
"['a', 'space']",modular,79,img/target_9.png,48,"['space', 'semicolon']",5,0.05000000074505806,1.0,75.0945053100586,"['a', 'space']",0.8700778484344482,78.0
"['s', 'space']",modular,80,img/target_12.png,48,"['j', 'semicolon']",6,0.05000000074505806,1.0,76.06178283691406,"['s', 'space']",0.6328909397125244,79.0
"['s', 'd']",modular,81,img/target_10.png,48,"['j', 'k']",7,0.05000000074505806,1.0,76.77764129638672,"['d', 's']",0.5628089904785156,80.0
"['s', 'space']",modular,82,img/target_12.png,48,"['j', 'semicolon']",6,0.05000000074505806,1.0,77.42762756347656,"['s', 'space']",0.7609949111938477,81.0
"['a', 'space']",modular,83,img/target_9.png,48,"['space', 'semicolon']",5,0.05000000074505806,1.0,78.27796936035156,"['a', 'space']",0.615588903427124,82.0
"['f', 'space']",modular,84,img/target_15.png,48,"['l', 'semicolon']",4,0.05000000074505806,1.0,78.978759765625,"['f', 'space']",1.1218388080596924,83.0
"['a', 'space']",modular,85,img/target_9.png,48,"['space', 'semicolon']",5,0.05000000074505806,1.0,80.19489288330078,"['a', 'space']",0.6185488700866699,84.0
"['s', 'f']",modular,86,img/target_11.png,48,"['j', 'l']",8,0.05000000074505806,1.0,80.91229248046875,"['f', 's']",0.7418801784515381,85.0
"['s', 'd']",modular,87,img/target_10.png,48,"['j', 'k']",7,0.05000000074505806,0.0,81.74530029296875,"['d', 's']",0.5400629043579102,86.0
"['a', 'space']",modular,88,img/target_9.png,48,"['space', 'semicolon']",5,0.05000000074505806,1.0,83.06146240234375,"['a', 'space']",0.6308929920196533,87.0
"['f', 'space']",modular,89,img/target_15.png,48,"['l', 'semicolon']",4,0.05000000074505806,1.0,83.796875,"['f', 'space']",0.9274311065673828,88.0
"['a', 'space']",modular,90,img/target_9.png,48,"['space', 'semicolon']",5,0.05000000074505806,1.0,84.81219482421875,"['a', 'space']",0.7047700881958008,89.0
"['s', 'space']",modular,91,img/target_12.png,48,"['j', 'semicolon']",6,0.05000000074505806,1.0,85.61266326904297,"['s', 'space']",0.7284021377563477,90.0
"['a', 's']",modular,92,img/target_6.png,48,"['space', 'j']",9,0.05000000074505806,1.0,86.42920684814453,"['a', 's']",0.6878299713134766,91.0
"['s', 'f']",modular,93,img/target_11.png,48,"['j', 'l']",8,0.05000000074505806,1.0,87.21353912353516,"['f', 's']",0.863724946975708,92.0
"['s', 'space']",modular,94,img/target_12.png,48,"['j', 'semicolon']",6,0.05000000074505806,0.0,88.16232299804688,"['s', 'space']",0.7138299942016602,93.0
"['a', 's']",modular,95,img/target_6.png,48,"['space', 'j']",9,0.05000000074505806,1.0,89.52918243408203,"['a', 's']",0.6188991069793701,94.0
"['d', 'space']",modular,96,img/target_14.png,48,"['k', 'semicolon']",0,0.05000000074505806,0.0,90.24594116210938,"['d', 'space']",0.7270059585571289,95.0
"['a', 's']",modular,97,img/target_6.png,48,"['space', 'j']",9,0.05000000074505806,0.0,92.0797348022461,"['a', 's']",0.6614170074462891,96.0
"['d', 'space']",modular,98,img/target_14.png,48,"['k', 'semicolon']",0,0.05000000074505806,1.0,93.2457504272461,"['d', 'space']",1.358492136001587,97.0
"['a', 'd']",modular,99,img/target_7.png,48,"['space', 'k']",1,0.05000000074505806,1.0,94.6968994140625,"['a', 'd']",0.8761098384857178,98.0
"['a', 'f']",modular,100,img/target_8.png,48,"['space', 'l']",3,0.05000000074505806,1.0,95.66348266601562,"['a', 'f']",0.9002032279968262,99.0
"['d', 'f']",modular,101,img/target_13.png,48,"['k', 'l']",2,0.05000000074505806,0.0,96.66373443603516,"['d', 'f']",0.6770150661468506,100.0
"['f', 'space']",modular,102,img/target_15.png,48,"['l', 'semicolon']",4,0.05000000074505806,1.0,97.9805679321289,"['f', 'space']",0.8320770263671875,101.0
"['a', 'space']",modular,103,img/target_9.png,48,"['space', 'semicolon']",5,0.05000000074505806,1.0,98.8969497680664,"['a', 'space']",0.7067279815673828,102.0
"['s', 'f']",modular,104,img/target_11.png,48,"['j', 'l']",8,0.05000000074505806,1.0,99.69720458984375,"['f', 's']",0.8023757934570312,103.0
"['a', 'space']",modular,105,img/target_9.png,48,"['space', 'semicolon']",5,0.05000000074505806,1.0,100.59687805175781,"['a', 'space']",0.8229610919952393,104.0
"['f', 'space']",modular,106,img/target_15.png,48,"['l', 'semicolon']",4,0.05000000074505806,1.0,101.51400756835938,"['f', 'space']",0.6654820442199707,105.0
"['a', 'f']",modular,107,img/target_8.png,48,"['space', 'l']",3,0.05000000074505806,1.0,102.26409149169922,"['a', 'f']",0.724790096282959,106.0
"['f', 'space']",modular,108,img/target_15.png,48,"['l', 'semicolon']",4,0.05000000074505806,1.0,103.08058166503906,"['f', 'space']",0.7548518180847168,107.0
"['a', 'f']",modular,109,img/target_8.png,48,"['space', 'l']",3,0.05000000074505806,1.0,103.93086242675781,"['a', 'f']",0.6566710472106934,108.0
"['a', 'd']",modular,110,img/target_7.png,48,"['space', 'k']",1,0.05000000074505806,1.0,104.68115997314453,"['a', 'd']",1.002223014831543,109.0
"['d', 'f']",modular,111,img/target_13.png,48,"['k', 'l']",2,0.05000000074505806,1.0,105.78129577636719,"['d', 'f']",0.7422809600830078,110.0
"['f', 'space']",modular,112,img/target_15.png,48,"['l', 'semicolon']",4,0.05000000074505806,1.0,106.61448669433594,"['f', 'space']",0.7579071521759033,111.0
"['a', 'space']",modular,113,img/target_9.png,48,"['space', 'semicolon']",5,0.05000000074505806,1.0,107.46466827392578,"['a', 'space']",0.778770923614502,112.0
"['f', 'space']",modular,114,img/target_15.png,48,"['l', 'semicolon']",4,0.05000000074505806,1.0,108.33090209960938,"['f', 'space']",0.7045161724090576,113.0
"['d', 'f']",modular,115,img/target_13.png,48,"['k', 'l']",2,0.05000000074505806,1.0,109.13152313232422,"['d', 'f']",0.6637299060821533,114.0
"['a', 'd']",modular,116,img/target_7.png,48,"['space', 'k']",1,0.05000000074505806,0.0,109.88191986083984,"['a', 'd']",0.7134358882904053,115.0
"['a', 'f']",modular,117,img/target_8.png,48,"['space', 'l']",3,0.05000000074505806,0.0,110.91415405273438,"['a', 'f']",1.1370949745178223,116.0
"['d', 'space']",modular,118,img/target_14.png,48,"['k', 'semicolon']",0,0.05000000074505806,1.0,112.78165435791016,"['d', 'space']",0.7264828681945801,117.0
"['d', 'f']",modular,119,img/target_13.png,48,"['k', 'l']",2,0.05000000074505806,1.0,113.59859466552734,"['d', 'f']",0.6686029434204102,118.0
"['d', 'space']",modular,120,img/target_14.png,48,"['k', 'semicolon']",0,0.05000000074505806,1.0,114.36614990234375,"['d', 'space']",0.8540480136871338,119.0
"['a', 'f']",modular,121,img/target_8.png,48,"['space', 'l']",3,0.05000000074505806,0.0,115.31565856933594,"['a', 'f']",0.8635718822479248,120.0
"['d', 'space']",modular,122,img/target_14.png,48,"['k', 'semicolon']",0,0.05000000074505806,1.0,116.69934844970703,"['d', 'space']",0.7837350368499756,121.0
"['d', 'f']",modular,123,img/target_13.png,48,"['k', 'l']",2,0.05000000074505806,1.0,117.58189392089844,"['d', 'f']",0.6139388084411621,122.0
"['d', 'space']",modular,124,img/target_14.png,48,"['k', 'semicolon']",0,0.05000000074505806,1.0,118.29891967773438,"['d', 'space']",0.8321609497070312,123.0
"['a', 'd']",modular,125,img/target_7.png,48,"['space', 'k']",1,0.05000000074505806,1.0,119.23226928710938,"['a', 'd']",0.6834211349487305,124.0
"['d', 'f']",modular,126,img/target_13.png,48,"['k', 'l']",2,0.05000000074505806,1.0,120.01634216308594,"['d', 'f']",0.7305309772491455,125.0
"['f', 'space']",modular,127,img/target_15.png,48,"['l', 'semicolon']",4,0.05000000074505806,1.0,120.84925079345703,"['f', 'space']",0.8428170680999756,126.0
"['d', 'f']",modular,128,img/target_13.png,48,"['k', 'l']",2,0.05000000074505806,1.0,121.78254699707031,"['d', 'f']",0.6602621078491211,127.0
"['a', 'f']",modular,129,img/target_8.png,48,"['space', 'l']",3,0.05000000074505806,1.0,122.53299713134766,"['a', 'f']",0.8068628311157227,128.0
"['d', 'space']",modular,130,img/target_14.png,48,"['k', 'semicolon']",0,0.05000000074505806,1.0,123.43278503417969,"['d', 'space']",0.7299599647521973,129.0
"['a', 'f']",modular,131,img/target_8.png,48,"['space', 'l']",3,0.05000000074505806,1.0,124.2660903930664,"['a', 'f']",0.7126460075378418,130.0
"['d', 'space']",modular,132,img/target_14.png,48,"['k', 'semicolon']",0,0.05000000074505806,1.0,125.06549835205078,"['d', 'space']",0.7451639175415039,131.0
"['a', 's']",modular,133,img/target_6.png,48,"['space', 'j']",9,0.05000000074505806,1.0,125.89906311035156,"['a', 's']",0.8486638069152832,132.0
"['s', 'space']",modular,134,img/target_12.png,48,"['j', 'semicolon']",6,0.05000000074505806,1.0,126.85014343261719,"['s', 'space']",0.6806881427764893,133.0
"['s', 'f']",modular,135,img/target_11.png,48,"['j', 'l']",8,0.05000000074505806,1.0,127.61595153808594,"['f', 's']",0.8106329441070557,134.0
"['s', 'space']",modular,136,img/target_12.png,48,"['j', 'semicolon']",6,0.05000000074505806,1.0,128.51693725585938,"['s', 'space']",0.813805103302002,135.0
"['s', 'f']",modular,137,img/target_11.png,48,"['j', 'l']",8,0.05000000074505806,1.0,129.41574096679688,"['f', 's']",1.1788749694824219,136.0
"['a', 's']",modular,138,img/target_6.png,48,"['space', 'j']",9,0.05000000074505806,1.0,130.6826934814453,"['a', 's']",0.6238830089569092,137.0
"['s', 'space']",modular,139,img/target_12.png,48,"['j', 'semicolon']",6,0.05000000074505806,1.0,131.40029907226562,"['s', 'space']",0.7394509315490723,138.0
"['a', 's']",modular,140,img/target_6.png,48,"['space', 'j']",9,0.05000000074505806,1.0,132.23345947265625,"['a', 's']",0.6091451644897461,139.0
"['s', 'f']",modular,141,img/target_11.png,48,"['j', 'l']",8,0.05000000074505806,1.0,132.93321228027344,"['f', 's']",0.7411441802978516,140.0
"['s', 'space']",modular,142,img/target_12.png,48,"['j', 'semicolon']",6,0.05000000074505806,1.0,133.76695251464844,"['s', 'space']",0.7567811012268066,141.0
"['s', 'd']",modular,143,img/target_10.png,48,"['j', 'k']",7,0.05000000074505806,1.0,134.6173858642578,"['d', 's']",0.618096113204956,142.0
"['a', 's']",modular,144,img/target_6.png,48,"['space', 'j']",9,0.05000000074505806,1.0,135.3338623046875,"['a', 's']",0.6052920818328857,143.0
"['s', 'space']",modular,145,img/target_12.png,48,"['j', 'semicolon']",6,0.05000000074505806,0.0,136.03387451171875,"['s', 'space']",0.7371299266815186,144.0
"['a', 's']",modular,146,img/target_6.png,48,"['space', 'j']",9,0.05000000074505806,1.0,137.80035400390625,"['a', 's']",0.5789239406585693,145.0
"['s', 'space']",modular,147,img/target_12.png,48,"['j', 'semicolon']",6,0.05000000074505806,1.0,138.4673614501953,"['s', 'space']",0.7427980899810791,146.0
"['a', 'space']",modular,148,img/target_9.png,48,"['space', 'semicolon']",5,0.05000000074505806,1.0,139.3007049560547,"['a', 'space']",0.5827090740203857,147.0
"['s', 'd']",modular,149,img/target_10.png,48,"['j', 'k']",7,0.05000000074505806,1.0,139.98399353027344,"['d', 's']",0.6663699150085449,148.0
"['a', 's']",modular,150,img/target_6.png,48,"['space', 'j']",9,0.05000000074505806,1.0,140.7340087890625,"['a', 's']",0.5808260440826416,149.0
"['s', 'd']",modular,151,img/target_10.png,48,"['j', 'k']",7,0.05000000074505806,1.0,141.4005584716797,"['d', 's']",0.6183629035949707,150.0
"['s', 'space']",modular,152,img/target_12.png,48,"['j', 'semicolon']",6,0.05000000074505806,1.0,142.11798095703125,"['s', 'space']",0.7410359382629395,151.0
"['a', 'space']",modular,153,img/target_9.png,48,"['space', 'semicolon']",5,0.05000000074505806,1.0,142.95175170898438,"['a', 'space']",0.6832470893859863,152.0
"['f', 'space']",modular,154,img/target_15.png,48,"['l', 'semicolon']",4,0.05000000074505806,1.0,143.7350616455078,"['f', 'space']",1.171015977859497,153.0
"['a', 'f']",modular,155,img/target_8.png,48,"['space', 'l']",3,0.05000000074505806,0.0,145.00143432617188,"['a', 'f']",0.6817100048065186,154.0
"['f', 'space']",modular,156,img/target_15.png,48,"['l', 'semicolon']",4,0.05000000074505806,1.0,146.4022979736328,"['f', 'space']",0.8876500129699707,155.0
"['a', 'd']",modular,157,img/target_7.png,48,"['space', 'k']",1,0.05000000074505806,1.0,147.3840789794922,"['a', 'd']",0.8098680973052979,156.0
"['d', 'f']",modular,158,img/target_13.png,48,"['k', 'l']",2,0.05000000074505806,1.0,148.2853240966797,"['d', 'f']",0.7246990203857422,157.0
"['a', 'f']",modular,159,img/target_8.png,48,"['space', 'l']",3,0.05000000074505806,1.0,149.10159301757812,"['a', 'f']",0.9961609840393066,158.0
"['a', 'd']",modular,160,img/target_7.png,48,"['space', 'k']",1,0.05000000074505806,1.0,150.18496704101562,"['a', 'd']",0.7298481464385986,159.0
"['a', 'f']",modular,161,img/target_8.png,48,"['space', 'l']",3,0.05000000074505806,1.0,151.01849365234375,"['a', 'f']",0.7593188285827637,160.0
"['d', 'f']",modular,162,img/target_13.png,48,"['k', 'l']",2,0.05000000074505806,1.0,151.86868286132812,"['d', 'f']",0.7742190361022949,161.0
"['a', 'f']",modular,163,img/target_8.png,48,"['space', 'l']",3,0.05000000074505806,0.0,152.7355499267578,"['a', 'f']",0.7230620384216309,162.0
"['a', 'd']",modular,164,img/target_7.png,48,"['space', 'k']",1,0.05000000074505806,1.0,153.93704223632812,"['a', 'd']",0.8015689849853516,163.0
"['a', 'f']",modular,165,img/target_8.png,48,"['space', 'l']",3,0.05000000074505806,1.0,154.83604431152344,"['a', 'f']",0.6616439819335938,164.0
"['d', 'f']",modular,166,img/target_13.png,48,"['k', 'l']",2,0.05000000074505806,1.0,155.58493041992188,"['d', 'f']",0.7136290073394775,165.0
"['f', 'space']",modular,167,img/target_15.png,48,"['l', 'semicolon']",4,0.05000000074505806,1.0,156.38482666015625,"['f', 'space']",0.7937240600585938,166.0
"['a', 'space']",modular,168,img/target_9.png,48,"['space', 'semicolon']",5,0.05000000074505806,0.0,157.26914978027344,"['a', 'space']",0.5892000198364258,167.0
"['f', 'space']",modular,169,img/target_15.png,48,"['l', 'semicolon']",4,0.05000000074505806,0.0,158.51881408691406,"['f', 'space']",0.6755690574645996,168.0
"['a', 'f']",modular,170,img/target_8.png,48,"['space', 'l']",3,0.05000000074505806,1.0,159.8201904296875,"['a', 'f']",0.8063008785247803,169.0
"['d', 'f']",modular,171,img/target_13.png,48,"['k', 'l']",2,0.05000000074505806,1.0,160.71853637695312,"['d', 'f']",0.6838541030883789,170.0
"['f', 'space']",modular,172,img/target_15.png,48,"['l', 'semicolon']",4,0.05000000074505806,1.0,161.4859619140625,"['f', 'space']",1.0033340454101562,171.0
"['a', 'f']",modular,173,img/target_8.png,48,"['space', 'l']",3,0.05000000074505806,1.0,162.58700561523438,"['a', 'f']",0.6142580509185791,172.0
"['d', 'space']",modular,174,img/target_14.png,48,"['k', 'semicolon']",0,0.05000000074505806,0.0,163.28659057617188,"['d', 'space']",0.5954627990722656,173.0
"['d', 'f']",modular,175,img/target_13.png,48,"['k', 'l']",2,0.05000000074505806,1.0,164.2696533203125,"['d', 'f']",0.7965669631958008,174.0
"['a', 'f']",modular,176,img/target_8.png,48,"['space', 'l']",3,0.05000000074505806,1.0,165.153076171875,"['a', 'f']",0.7773199081420898,175.0
"['d', 'f']",modular,177,img/target_13.png,48,"['k', 'l']",2,0.05000000074505806,1.0,166.01913452148438,"['d', 'f']",0.5820472240447998,176.0
"['a', 'f']",modular,178,img/target_8.png,48,"['space', 'l']",3,0.05000000074505806,1.0,166.70343017578125,"['a', 'f']",0.5618300437927246,177.0
"['d', 'space']",modular,179,img/target_14.png,48,"['k', 'semicolon']",0,0.05000000074505806,1.0,167.35336303710938,"['d', 'space']",0.8089461326599121,178.0
"['d', 'f']",modular,180,img/target_13.png,48,"['k', 'l']",2,0.05000000074505806,1.0,168.25381469726562,"['d', 'f']",0.6283330917358398,179.0
"['a', 'd']",modular,181,img/target_7.png,48,"['space', 'k']",1,0.05000000074505806,0.0,168.97042846679688,"['a', 'd']",0.6479549407958984,180.0
"['d', 'space']",modular,182,img/target_14.png,48,"['k', 'semicolon']",0,0.05000000074505806,1.0,170.30397033691406,"['d', 'space']",0.7463111877441406,181.0
"['a', 's']",modular,183,img/target_6.png,48,"['space', 'j']",9,0.05000000074505806,0.0,171.13650512695312,"['a', 's']",0.5685479640960693,182.0
"['d', 'space']",modular,184,img/target_14.png,48,"['k', 'semicolon']",0,0.05000000074505806,1.0,172.1040802001953,"['d', 'space']",0.6649439334869385,183.0
"['d', 'f']",modular,185,img/target_13.png,48,"['k', 'l']",2,0.05000000074505806,1.0,172.87081909179688,"['d', 'f']",0.7942972183227539,184.0
"['d', 'space']",modular,186,img/target_14.png,48,"['k', 'semicolon']",0,0.05000000074505806,1.0,173.75465393066406,"['d', 'space']",0.8382740020751953,185.0
"['a', 's']",modular,187,img/target_6.png,48,"['space', 'j']",9,0.05000000074505806,1.0,174.68763732910156,"['a', 's']",0.8814008235931396,186.0
"['s', 'd']",modular,188,img/target_10.png,48,"['j', 'k']",7,0.05000000074505806,1.0,175.67098999023438,"['d', 's']",0.6508650779724121,187.0
"['a', 's']",modular,189,img/target_6.png,48,"['space', 'j']",9,0.05000000074505806,1.0,176.42141723632812,"['a', 's']",0.6766219139099121,188.0
"['d', 'space']",modular,190,img/target_14.png,48,"['k', 'semicolon']",0,0.05000000074505806,1.0,177.1881561279297,"['d', 'space']",0.7332780361175537,189.0
"['a', 'f']",modular,191,img/target_8.png,48,"['space', 'l']",3,0.05000000074505806,1.0,178.02137756347656,"['a', 'f']",0.7633271217346191,190.0
"['d', 'f']",modular,192,img/target_13.png,48,"['k', 'l']",2,0.05000000074505806,1.0,178.87109375,"['d', 'f']",0.6985340118408203,191.0
"['d', 'space']",modular,193,img/target_14.png,48,"['k', 'semicolon']",0,0.05000000074505806,1.0,179.6712646484375,"['d', 'space']",0.7625679969787598,192.0
"['a', 's']",modular,194,img/target_6.png,48,"['space', 'j']",9,0.05000000074505806,1.0,180.52163696289062,"['a', 's']",0.6402218341827393,193.0
"['s', 'd']",modular,195,img/target_10.png,48,"['j', 'k']",7,0.05000000074505806,1.0,181.2550048828125,"['d', 's']",0.6577460765838623,194.0
"['s', 'space']",modular,196,img/target_12.png,48,"['j', 'semicolon']",6,0.05000000074505806,1.0,182.005126953125,"['s', 'space']",0.7099800109863281,195.0
"['a', 's']",modular,197,img/target_6.png,48,"['space', 'j']",9,0.05000000074505806,1.0,182.8048858642578,"['a', 's']",0.6277768611907959,196.0
"['s', 'space']",modular,198,img/target_12.png,48,"['j', 'semicolon']",6,0.05000000074505806,1.0,183.521484375,"['s', 'space']",0.727931022644043,197.0
"['s', 'd']",modular,199,img/target_10.png,48,"['j', 'k']",7,0.05000000074505806,1.0,184.33831787109375,"['d', 's']",0.6383171081542969,198.0
"['a', 'space']",modular,200,img/target_9.png,48,"['space', 'semicolon']",5,0.05000000074505806,1.0,185.07211303710938,"['a', 'space']",1.1044268608093262,199.0
"['s', 'space']",modular,201,img/target_12.png,48,"['j', 'semicolon']",6,0.05000000074505806,1.0,186.2720184326172,"['s', 'space']",0.8006250858306885,200.0
"['a', 's']",modular,202,img/target_6.png,48,"['space', 'j']",9,0.05000000074505806,1.0,187.17225646972656,"['a', 's']",0.613386869430542,201.0
"['s', 'f']",modular,203,img/target_11.png,48,"['j', 'l']",8,0.05000000074505806,1.0,187.88888549804688,"['f', 's']",0.8084690570831299,202.0
"['s', 'space']",modular,204,img/target_12.png,48,"['j', 'semicolon']",6,0.05000000074505806,1.0,188.78903198242188,"['s', 'space']",0.6922681331634521,203.0
"['s', 'f']",modular,205,img/target_11.png,48,"['j', 'l']",8,0.05000000074505806,1.0,189.57232666015625,"['f', 's']",0.9168810844421387,204.0
"['a', 's']",modular,206,img/target_6.png,48,"['space', 'j']",9,0.05000000074505806,1.0,190.58938598632812,"['a', 's']",0.6670827865600586,205.0
"['s', 'd']",modular,207,img/target_10.png,48,"['j', 'k']",7,0.05000000074505806,1.0,191.35643005371094,"['d', 's']",0.5328288078308105,206.0
"['a', 's']",modular,208,img/target_6.png,48,"['space', 'j']",9,0.05000000074505806,1.0,191.989013671875,"['a', 's']",0.5962729454040527,207.0
"['s', 'f']",modular,209,img/target_11.png,48,"['j', 'l']",8,0.05000000074505806,1.0,192.673095703125,"['f', 's']",0.6792538166046143,208.0
"['s', 'space']",modular,210,img/target_12.png,48,"['j', 'semicolon']",6,0.05000000074505806,1.0,193.43951416015625,"['s', 'space']",0.840770959854126,209.0
"['a', 'space']",modular,211,img/target_9.png,48,"['space', 'semicolon']",5,0.05000000074505806,1.0,194.37242126464844,"['a', 'space']",1.0048589706420898,210.0
"['s', 'space']",modular,212,img/target_12.png,48,"['j', 'semicolon']",6,0.05000000074505806,1.0,195.4729461669922,"['s', 'space']",0.9442219734191895,211.0
"['s', 'd']",modular,213,img/target_10.png,48,"['j', 'k']",7,0.05000000074505806,1.0,196.50645446777344,"['d', 's']",0.7257590293884277,212.0
"['s', 'space']",modular,214,img/target_12.png,48,"['j', 'semicolon']",6,0.05000000074505806,1.0,197.3223419189453,"['s', 'space']",0.7497248649597168,213.0
"['a', 'space']",modular,215,img/target_9.png,48,"['space', 'semicolon']",5,0.05000000074505806,1.0,198.1735076904297,"['a', 'space']",0.6114580631256104,214.0
"['s', 'space']",modular,216,img/target_12.png,48,"['j', 'semicolon']",6,0.05000000074505806,0.0,198.87353515625,"['s', 'space']",0.8555002212524414,215.0
"['s', 'f']",modular,217,img/target_11.png,48,"['j', 'l']",8,0.05000000074505806,1.0,200.5570831298828,"['f', 's']",0.9319992065429688,216.0
"['a', 'space']",modular,218,img/target_9.png,48,"['space', 'semicolon']",5,0.05000000074505806,1.0,201.57354736328125,"['a', 'space']",0.7236700057983398,217.0
"['s', 'space']",modular,219,img/target_12.png,48,"['j', 'semicolon']",6,0.05000000074505806,1.0,202.39035034179688,"['s', 'space']",0.8580920696258545,218.0
"['s', 'd']",modular,220,img/target_10.png,48,"['j', 'k']",7,0.05000000074505806,1.0,203.34010314941406,"['d', 's']",0.5728790760040283,219.0
"['a', 's']",modular,221,img/target_6.png,48,"['space', 'j']",9,0.05000000074505806,1.0,204.00726318359375,"['a', 's']",0.7047529220581055,220.0
"['s', 'd']",modular,222,img/target_10.png,48,"['j', 'k']",7,0.05000000074505806,1.0,204.806640625,"['d', 's']",0.5464668273925781,221.0
"['s', 'f']",modular,223,img/target_11.png,48,"['j', 'l']",8,0.05000000074505806,1.0,205.44110107421875,"['f', 's']",0.8947081565856934,222.0
"['a', 'space']",modular,224,img/target_9.png,48,"['space', 'semicolon']",5,0.05000000074505806,1.0,206.42364501953125,"['a', 'space']",0.7120249271392822,223.0
"['s', 'space']",modular,225,img/target_12.png,48,"['j', 'semicolon']",6,0.05000000074505806,1.0,207.22396850585938,"['s', 'space']",0.7608251571655273,224.0
"['s', 'f']",modular,226,img/target_11.png,48,"['j', 'l']",8,0.05000000074505806,1.0,208.0742950439453,"['f', 's']",0.9813838005065918,225.0
"['s', 'd']",modular,227,img/target_10.png,48,"['j', 'k']",7,0.05000000074505806,0.0,209.1582794189453,"['d', 's']",0.6182188987731934,226.0
"['s', 'f']",modular,228,img/target_11.png,48,"['j', 'l']",8,0.05000000074505806,1.0,210.4082794189453,"['f', 's']",0.7123000621795654,227.0
"['s', 'd']",modular,229,img/target_10.png,48,"['j', 'k']",7,0.05000000074505806,1.0,211.20779418945312,"['d', 's']",0.7119638919830322,228.0
"['s', 'f']",modular,230,img/target_11.png,48,"['j', 'l']",8,0.05000000074505806,1.0,212.00733947753906,"['f', 's']",0.6011660099029541,229.0
"['s', 'd']",modular,231,img/target_10.png,48,"['j', 'k']",7,0.05000000074505806,1.0,212.7081298828125,"['d', 's']",0.5714261531829834,230.0
"['s', 'space']",modular,232,img/target_12.png,48,"['j', 'semicolon']",6,0.05000000074505806,1.0,213.3746795654297,"['s', 'space']",1.1457550525665283,231.0
"['s', 'f']",modular,233,img/target_11.png,48,"['j', 'l']",8,0.05000000074505806,1.0,214.60787963867188,"['f', 's']",0.8243448734283447,232.0
"['s', 'space']",modular,234,img/target_12.png,48,"['j', 'semicolon']",6,0.05000000074505806,1.0,215.52508544921875,"['s', 'space']",0.6749849319458008,233.0
"['s', 'd']",modular,235,img/target_10.png,48,"['j', 'k']",7,0.05000000074505806,1.0,216.29156494140625,"['d', 's']",0.6998770236968994,234.0
"['a', 'space']",modular,236,img/target_9.png,48,"['space', 'semicolon']",5,0.05000000074505806,1.0,217.09173583984375,"['a', 'space']",0.7727291584014893,235.0
"['f', 'space']",modular,237,img/target_15.png,48,"['l', 'semicolon']",4,0.05000000074505806,1.0,217.95803833007812,"['f', 'space']",0.849478006362915,236.0
"['a', 'd']",modular,238,img/target_7.png,48,"['space', 'k']",1,0.05000000074505806,1.0,218.90760803222656,"['a', 'd']",0.9797720909118652,237.0
"['d', 'f']",modular,239,img/target_13.png,48,"['k', 'l']",2,0.05000000074505806,1.0,219.97557067871094,"['d', 'f']",0.6885111331939697,238.0
"['f', 'space']",modular,240,img/target_15.png,48,"['l', 'semicolon']",4,0.05000000074505806,1.0,220.75852966308594,"['f', 'space']",0.7607071399688721,239.0
"['a', 'd']",modular,241,img/target_7.png,48,"['space', 'k']",1,0.05000000074505806,0.0,221.60867309570312,"['a', 'd']",0.6387028694152832,240.0
"['d', 'space']",modular,242,img/target_14.png,48,"['k', 'semicolon']",0,0.05000000074505806,1.0,222.94155883789062,"['d', 'space']",0.8417081832885742,241.0
"['a', 'd']",modular,243,img/target_7.png,48,"['space', 'k']",1,0.05000000074505806,0.0,223.87567138671875,"['a', 'd']",1.0202770233154297,242.0
"['f', 'space']",modular,244,img/target_15.png,48,"['l', 'semicolon']",4,0.05000000074505806,1.0,225.54307556152344,"['f', 'space']",0.9039971828460693,243.0
"['a', 'f']",modular,245,img/target_8.png,48,"['space', 'l']",3,0.05000000074505806,1.0,226.54266357421875,"['a', 'f']",1.9616310596466064,244.0
"['f', 'space']",modular,246,img/target_15.png,48,"['l', 'semicolon']",4,0.05000000074505806,0.0,228.59271240234375,"['f', 'space']",0.7582252025604248,245.0
"['d', 'f']",modular,247,img/target_13.png,48,"['k', 'l']",2,0.05000000074505806,1.0,229.8600616455078,"['d', 'f']",1.4669599533081055,246.0
"['d', 'space']",modular,248,img/target_14.png,48,"['k', 'semicolon']",0,0.05000000074505806,1.0,231.4267578125,"['d', 'space']",0.7330870628356934,247.0
"['a', 'd']",modular,249,img/target_7.png,48,"['space', 'k']",1,0.05000000074505806,1.0,232.2595977783203,"['a', 'd']",0.8592419624328613,248.0
"['f', 'space']",modular,250,img/target_15.png,48,"['l', 'semicolon']",4,0.05000000074505806,1.0,233.20968627929688,"['f', 'space']",0.8771889209747314,249.0
"['a', 'f']",modular,251,img/target_8.png,48,"['space', 'l']",3,0.05000000074505806,1.0,234.17645263671875,"['a', 'f']",1.3914740085601807,250.0
"['a', 'd']",modular,252,img/target_7.png,48,"['space', 'k']",1,0.05000000074505806,1.0,235.66058349609375,"['a', 'd']",0.8422400951385498,251.0
"['d', 'f']",modular,253,img/target_13.png,48,"['k', 'l']",2,0.05000000074505806,1.0,236.59375,"['d', 'f']",0.7811141014099121,252.0
"['d', 'space']",modular,254,img/target_14.png,48,"['k', 'semicolon']",0,0.05000000074505806,1.0,237.47630310058594,"['d', 'space']",0.7805869579315186,253.0
"['a', 'd']",modular,255,img/target_7.png,48,"['space', 'k']",1,0.05000000074505806,1.0,238.34291076660156,"['a', 'd']",0.7516360282897949,254.0
"['a', 'f']",modular,256,img/target_8.png,48,"['space', 'l']",3,0.05000000074505806,1.0,239.19387817382812,"['a', 'f']",0.8207681179046631,255.0
"['f', 'space']",modular,257,img/target_15.png,48,"['l', 'semicolon']",4,0.05000000074505806,1.0,240.11087036132812,"['f', 'space']",0.6877210140228271,256.0
"['a', 'space']",modular,258,img/target_9.png,48,"['space', 'semicolon']",5,0.05000000074505806,1.0,240.8944091796875,"['a', 'space']",0.8253061771392822,257.0
"['f', 'space']",modular,259,img/target_15.png,48,"['l', 'semicolon']",4,0.05000000074505806,1.0,241.80996704101562,"['f', 'space']",0.7253260612487793,258.0
"['d', 'f']",modular,260,img/target_13.png,48,"['k', 'l']",2,0.05000000074505806,1.0,242.62747192382812,"['d', 'f']",0.6911759376525879,259.0
"['a', 'd']",modular,261,img/target_7.png,48,"['space', 'k']",1,0.05000000074505806,1.0,243.41015625,"['a', 'd']",0.6849629878997803,260.0
"['d', 'f']",modular,262,img/target_13.png,48,"['k', 'l']",2,0.05000000074505806,1.0,244.1934356689453,"['d', 'f']",0.7407770156860352,261.0
"['d', 'space']",modular,263,img/target_14.png,48,"['k', 'semicolon']",0,0.05000000074505806,1.0,245.02767944335938,"['d', 'space']",0.7079010009765625,262.0
"['a', 'd']",modular,264,img/target_7.png,48,"['space', 'k']",1,0.05000000074505806,1.0,245.8279571533203,"['a', 'd']",0.6424729824066162,263.0
"['d', 'f']",modular,265,img/target_13.png,48,"['k', 'l']",2,0.05000000074505806,1.0,246.56092834472656,"['d', 'f']",0.6622200012207031,264.0
"['a', 'd']",modular,266,img/target_7.png,48,"['space', 'k']",1,0.05000000074505806,1.0,247.31065368652344,"['a', 'd']",0.6164960861206055,265.0
"['f', 'space']",modular,267,img/target_15.png,48,"['l', 'semicolon']",4,0.05000000074505806,1.0,248.02784729003906,"['f', 'space']",0.7464549541473389,266.0
"['a', 'f']",modular,268,img/target_8.png,48,"['space', 'l']",3,0.05000000074505806,1.0,248.8772430419922,"['a', 'f']",0.6818220615386963,267.0
"['d', 'space']",modular,269,img/target_14.png,48,"['k', 'semicolon']",0,0.05000000074505806,1.0,249.66152954101562,"['d', 'space']",0.6251449584960938,268.0
"['a', 's']",modular,270,img/target_6.png,48,"['space', 'j']",9,0.05000000074505806,1.0,250.37738037109375,"['a', 's']",0.6618001461029053,269.0
"['s', 'f']",modular,271,img/target_11.png,48,"['j', 'l']",8,0.05000000074505806,1.0,251.12901306152344,"['f', 's']",0.8064119815826416,270.0
"['s', 'space']",modular,272,img/target_12.png,48,"['j', 'semicolon']",6,0.05000000074505806,1.0,252.02810668945312,"['s', 'space']",0.7143149375915527,271.0
"['s', 'f']",modular,273,img/target_11.png,48,"['j', 'l']",8,0.05000000074505806,1.0,252.84490966796875,"['f', 's']",0.9053480625152588,272.0
"['a', 'space']",modular,274,img/target_9.png,48,"['space', 'semicolon']",5,0.05000000074505806,1.0,253.8450927734375,"['a', 'space']",0.8089289665222168,273.0
"['s', 'space']",modular,275,img/target_12.png,48,"['j', 'semicolon']",6,0.05000000074505806,1.0,254.74513244628906,"['s', 'space']",0.7170069217681885,274.0
"['s', 'd']",modular,276,img/target_10.png,48,"['j', 'k']",7,0.05000000074505806,1.0,255.56216430664062,"['d', 's']",0.692795991897583,275.0
"['s', 'space']",modular,277,img/target_12.png,48,"['j', 'semicolon']",6,0.05000000074505806,1.0,256.3451232910156,"['s', 'space']",0.7088818550109863,276.0
"['a', 'space']",modular,278,img/target_9.png,48,"['space', 'semicolon']",5,0.05000000074505806,1.0,257.14544677734375,"['a', 'space']",0.61319899559021,277.0
"['f', 'space']",modular,279,img/target_15.png,48,"['l', 'semicolon']",4,0.05000000074505806,1.0,257.8456115722656,"['f', 'space']",0.7294678688049316,278.0
"['d', 'f']",modular,280,img/target_13.png,48,"['k', 'l']",2,0.05000000074505806,1.0,258.6623229980469,"['d', 'f']",0.6087689399719238,279.0
"['a', 'd']",modular,281,img/target_7.png,48,"['space', 'k']",1,0.05000000074505806,1.0,259.3621520996094,"['a', 'd']",0.8756990432739258,280.0
"['f', 'space']",modular,282,img/target_15.png,48,"['l', 'semicolon']",4,0.05000000074505806,0.0,260.32861328125,"['f', 'space']",0.717231035232544,281.0
"['a', 'd']",modular,283,img/target_7.png,48,"['space', 'k']",1,0.05000000074505806,1.0,261.7127380371094,"['a', 'd']",1.4061388969421387,282.0
"['f', 'space']",modular,284,img/target_15.png,48,"['l', 'semicolon']",4,0.05000000074505806,1.0,263.21295166015625,"['f', 'space']",0.8095269203186035,283.0
"['a', 'space']",modular,285,img/target_9.png,48,"['space', 'semicolon']",5,0.05000000074505806,1.0,264.1130676269531,"['a', 'space']",0.9166169166564941,284.0
"['s', 'd']",modular,286,img/target_10.png,48,"['j', 'k']",7,0.05000000074505806,1.0,265.1295166015625,"['d', 's']",0.7161688804626465,285.0
"['s', 'space']",modular,287,img/target_12.png,48,"['j', 'semicolon']",6,0.05000000074505806,1.0,265.9461364746094,"['s', 'space']",0.795435905456543,286.0
"['a', 's']",modular,288,img/target_6.png,48,"['space', 'j']",9,0.05000000074505806,1.0,266.8290710449219,"['a', 's']",0.6895861625671387,287.0
"['s', 'd']",modular,289,img/target_10.png,48,"['j', 'k']",7,0.05000000074505806,1.0,267.6123046875,"['d', 's']",0.7304158210754395,288.0
"['s', 'f']",modular,290,img/target_11.png,48,"['j', 'l']",8,0.05000000074505806,1.0,268.4468994140625,"['f', 's']",1.0316650867462158,289.0
"['a', 'space']",modular,291,img/target_9.png,48,"['space', 'semicolon']",5,0.05000000074505806,1.0,269.5630798339844,"['a', 'space']",0.6592628955841064,290.0
"['s', 'space']",modular,292,img/target_12.png,48,"['j', 'semicolon']",6,0.05000000074505806,1.0,270.3133544921875,"['s', 'space']",0.6049890518188477,291.0
"['a', 's']",modular,293,img/target_6.png,48,"['space', 'j']",9,0.05000000074505806,1.0,271.01336669921875,"['a', 's']",0.632145881652832,292.0
"['s', 'd']",modular,294,img/target_10.png,48,"['j', 'k']",7,0.05000000074505806,1.0,271.72930908203125,"['d', 's']",0.7490589618682861,293.0
"['s', 'space']",modular,295,img/target_12.png,48,"['j', 'semicolon']",6,0.05000000074505806,0.0,272.5801696777344,"['s', 'space']",0.6743931770324707,294.0
"['s', 'f']",modular,296,img/target_11.png,48,"['j', 'l']",8,0.05000000074505806,1.0,273.86395263671875,"['f', 's']",0.9412839412689209,295.0
"['s', 'space']",modular,297,img/target_12.png,48,"['j', 'semicolon']",6,0.05000000074505806,1.0,274.8970947265625,"['s', 'space']",0.8453130722045898,296.0
"['a', 'space']",modular,298,img/target_9.png,48,"['space', 'semicolon']",5,0.05000000074505806,1.0,275.8305969238281,"['a', 'space']",0.7025690078735352,297.0
"['s', 'f']",modular,299,img/target_11.png,48,"['j', 'l']",8,0.05000000074505806,1.0,276.63043212890625,"['f', 's']",0.7826769351959229,298.0
"['s', 'space']",modular,300,img/target_12.png,48,"['j', 'semicolon']",6,0.05000000074505806,1.0,277.5137634277344,"['s', 'space']",0.7563109397888184,299.0
"['s', 'd']",modular,301,img/target_10.png,48,"['j', 'k']",7,0.05000000074505806,1.0,278.3637390136719,"['d', 's']",0.7774229049682617,300.0
"['s', 'space']",modular,302,img/target_12.png,48,"['j', 'semicolon']",6,0.05000000074505806,1.0,279.2311706542969,"['s', 'space']",0.6300339698791504,301.0
"['a', 'space']",modular,303,img/target_9.png,48,"['space', 'semicolon']",5,0.05000000074505806,0.0,279.9476318359375,"['a', 'space']",0.6655740737915039,302.0
"['s', 'space']",modular,304,img/target_12.png,48,"['j', 'semicolon']",6,0.05000000074505806,1.0,281.080322265625,"['s', 'space']",0.844763994216919,303.0
"['s', 'd']",modular,305,img/target_10.png,48,"['j', 'k']",7,0.05000000074505806,1.0,282.0137939453125,"['d', 's']",0.7201170921325684,304.0
"['s', 'space']",modular,306,img/target_12.png,48,"['j', 'semicolon']",6,0.05000000074505806,1.0,282.83050537109375,"['s', 'space']",0.631234884262085,305.0
"['s', 'd']",modular,307,img/target_10.png,48,"['j', 'k']",7,0.05000000074505806,0.0,283.5643615722656,"['d', 's']",0.5766348838806152,306.0
"['a', 'space']",modular,308,img/target_9.png,48,"['space', 'semicolon']",5,0.05000000074505806,1.0,284.7641296386719,"['a', 'space']",0.7448689937591553,307.0
"['s', 'f']",modular,309,img/target_11.png,48,"['j', 'l']",8,0.05000000074505806,1.0,285.5984191894531,"['f', 's']",0.8234860897064209,308.0
"['a', 'space']",modular,310,img/target_9.png,48,"['space', 'semicolon']",5,0.05000000074505806,1.0,286.514892578125,"['a', 'space']",0.6986300945281982,309.0
"['s', 'space']",modular,311,img/target_12.png,48,"['j', 'semicolon']",6,0.05000000074505806,0.0,287.31451416015625,"['s', 'space']",0.6513721942901611,310.0
"['a', 's']",modular,312,img/target_6.png,48,"['space', 'j']",9,0.05000000074505806,1.0,288.41510009765625,"['a', 's']",0.694843053817749,311.0
"['s', 'f']",modular,313,img/target_11.png,48,"['j', 'l']",8,0.05000000074505806,1.0,289.19775390625,"['f', 's']",0.7522399425506592,312.0
"['a', 'space']",modular,314,img/target_9.png,48,"['space', 'semicolon']",5,0.05000000074505806,1.0,290.0498962402344,"['a', 'space']",0.7069470882415771,313.0
"['s', 'space']",modular,315,img/target_12.png,48,"['j', 'semicolon']",6,0.05000000074505806,1.0,290.8482971191406,"['s', 'space']",0.8068678379058838,314.0
"['a', 's']",modular,316,img/target_6.png,48,"['space', 'j']",9,0.05000000074505806,1.0,291.7489318847656,"['a', 's']",0.6646718978881836,315.0
"['d', 'space']",modular,317,img/target_14.png,48,"['k', 'semicolon']",0,0.05000000074505806,0.0,292.50054931640625,"['d', 'space']",0.7133090496063232,316.0
"['d', 'f']",modular,318,img/target_13.png,48,"['k', 'l']",2,0.05000000074505806,1.0,294.19891357421875,"['d', 'f']",0.9496810436248779,317.0
"['d', 'space']",modular,319,img/target_14.png,48,"['k', 'semicolon']",0,0.05000000074505806,1.0,295.23272705078125,"['d', 'space']",0.7249250411987305,318.0
"['d', 'f']",modular,320,img/target_13.png,48,"['k', 'l']",2,0.05000000074505806,1.0,296.04931640625,"['d', 'f']",0.6683900356292725,319.0
"['a', 'd']",modular,321,img/target_7.png,48,"['space', 'k']",1,0.05000000074505806,1.0,296.8150634765625,"['a', 'd']",1.0854599475860596,320.0
"['f', 'space']",modular,322,img/target_15.png,48,"['l', 'semicolon']",4,0.05000000074505806,1.0,297.99853515625,"['f', 'space']",1.213886022567749,321.0
"['a', 'd']",modular,323,img/target_7.png,48,"['space', 'k']",1,0.05000000074505806,1.0,299.2986755371094,"['a', 'd']",0.8098719120025635,322.0
"['d', 'space']",modular,324,img/target_14.png,48,"['k', 'semicolon']",0,0.05000000074505806,1.0,300.1985778808594,"['d', 'space']",0.7192718982696533,323.0
"['a', 'd']",modular,325,img/target_7.png,48,"['space', 'k']",1,0.05000000074505806,1.0,301.0160217285156,"['a', 'd']",0.7171380519866943,324.0
"['d', 'space']",modular,326,img/target_14.png,48,"['k', 'semicolon']",0,0.05000000074505806,1.0,301.8330078125,"['d', 'space']",0.5552959442138672,325.0
"['d', 'f']",modular,327,img/target_13.png,48,"['k', 'l']",2,0.05000000074505806,1.0,302.48260498046875,"['d', 'f']",0.7787132263183594,326.0
"['a', 'f']",modular,328,img/target_8.png,48,"['space', 'l']",3,0.05000000074505806,1.0,303.3503112792969,"['a', 'f']",0.7750499248504639,327.0
"['f', 'space']",modular,329,img/target_15.png,48,"['l', 'semicolon']",4,0.05000000074505806,1.0,304.2168884277344,"['f', 'space']",0.7562570571899414,328.0
"['a', 'f']",modular,330,img/target_8.png,48,"['space', 'l']",3,0.05000000074505806,1.0,305.0669250488281,"['a', 'f']",0.8010818958282471,329.0
"['f', 'space']",modular,331,img/target_15.png,48,"['l', 'semicolon']",4,0.05000000074505806,1.0,305.9665832519531,"['f', 'space']",0.638481855392456,330.0
"['a', 'space']",modular,332,img/target_9.png,48,"['space', 'semicolon']",5,0.05000000074505806,1.0,306.6994323730469,"['a', 'space']",0.7934310436248779,331.0
"['s', 'd']",modular,333,img/target_10.png,48,"['j', 'k']",7,0.05000000074505806,1.0,307.5830078125,"['d', 's']",0.7971799373626709,332.0
"['a', 's']",modular,334,img/target_6.png,48,"['space', 'j']",9,0.05000000074505806,1.0,308.4667053222656,"['a', 's']",0.6103289127349854,333.0
"['s', 'f']",modular,335,img/target_11.png,48,"['j', 'l']",8,0.05000000074505806,1.0,309.1671142578125,"['f', 's']",0.726125955581665,334.0
"['a', 's']",modular,336,img/target_6.png,48,"['space', 'j']",9,0.05000000074505806,1.0,309.9830627441406,"['a', 's']",0.6611580848693848,335.0
"['s', 'space']",modular,337,img/target_12.png,48,"['j', 'semicolon']",6,0.05000000074505806,1.0,310.7342224121094,"['s', 'space']",0.7017397880554199,336.0
"['a', 's']",modular,338,img/target_6.png,48,"['space', 'j']",9,0.05000000074505806,1.0,311.5335998535156,"['a', 's']",0.6472358703613281,337.0
"['s', 'space']",modular,339,img/target_12.png,48,"['j', 'semicolon']",6,0.05000000074505806,1.0,312.2668762207031,"['s', 'space']",0.6980888843536377,338.0
"['s', 'd']",modular,340,img/target_10.png,48,"['j', 'k']",7,0.05000000074505806,1.0,313.06683349609375,"['d', 's']",0.7050759792327881,339.0
"['s', 'space']",modular,341,img/target_12.png,48,"['j', 'semicolon']",6,0.05000000074505806,0.0,313.8675537109375,"['s', 'space']",0.5856690406799316,340.0
"['s', 'd']",modular,342,img/target_10.png,48,"['j', 'k']",7,0.05000000074505806,1.0,315.0515441894531,"['d', 's']",0.7050778865814209,341.0
"['a', 'space']",modular,343,img/target_9.png,48,"['space', 'semicolon']",5,0.05000000074505806,1.0,315.85113525390625,"['a', 'space']",0.7775931358337402,342.0
"['f', 'space']",modular,344,img/target_15.png,48,"['l', 'semicolon']",4,0.05000000074505806,1.0,316.71722412109375,"['f', 'space']",0.8386249542236328,343.0
"['a', 'd']",modular,345,img/target_7.png,48,"['space', 'k']",1,0.05000000074505806,0.0,317.6510009765625,"['a', 'd']",0.6567490100860596,344.0
"['d', 'space']",modular,346,img/target_14.png,48,"['k', 'semicolon']",0,0.05000000074505806,1.0,319.2008056640625,"['d', 'space']",0.7318868637084961,345.0
"['a', 's']",modular,347,img/target_6.png,48,"['space', 'j']",9,0.05000000074505806,1.0,320.0349426269531,"['a', 's']",0.6735408306121826,346.0
"['s', 'space']",modular,348,img/target_12.png,48,"['j', 'semicolon']",6,0.05000000074505806,1.0,320.80133056640625,"['s', 'space']",0.6584339141845703,347.0
"['s', 'd']",modular,349,img/target_10.png,48,"['j', 'k']",7,0.05000000074505806,0.0,321.55108642578125,"['d', 's']",0.5492520332336426,348.0
"['a', 's']",modular,350,img/target_6.png,48,"['space', 'j']",9,0.05000000074505806,1.0,322.6851501464844,"['a', 's']",0.6544280052185059,349.0
"['s', 'space']",modular,351,img/target_12.png,48,"['j', 'semicolon']",6,0.05000000074505806,1.0,323.4352722167969,"['s', 'space']",0.7283627986907959,350.0
"['a', 's']",modular,352,img/target_6.png,48,"['space', 'j']",9,0.05000000074505806,1.0,324.26800537109375,"['a', 's']",0.6886641979217529,351.0
"['s', 'space']",modular,353,img/target_12.png,48,"['j', 'semicolon']",6,0.05000000074505806,1.0,325.0509948730469,"['s', 'space']",0.7055778503417969,352.0
"['s', 'd']",modular,354,img/target_10.png,48,"['j', 'k']",7,0.05000000074505806,1.0,325.85223388671875,"['d', 's']",0.687114953994751,353.0
"['s', 'space']",modular,355,img/target_12.png,48,"['j', 'semicolon']",6,0.05000000074505806,1.0,326.6346740722656,"['s', 'space']",0.6652519702911377,354.0
"['a', 'space']",modular,356,img/target_9.png,48,"['space', 'semicolon']",5,0.05000000074505806,1.0,327.4022216796875,"['a', 'space']",0.6504180431365967,355.0
"['s', 'd']",modular,357,img/target_10.png,48,"['j', 'k']",7,0.05000000074505806,1.0,328.15185546875,"['d', 's']",0.7004568576812744,356.0
"['s', 'f']",modular,358,img/target_11.png,48,"['j', 'l']",8,0.05000000074505806,1.0,328.9519958496094,"['f', 's']",0.9000611305236816,357.0
"['a', 'space']",modular,359,img/target_9.png,48,"['space', 'semicolon']",5,0.05000000074505806,1.0,329.9518127441406,"['a', 'space']",0.6440639495849609,358.0
"['s', 'space']",modular,360,img/target_12.png,48,"['j', 'semicolon']",6,0.05000000074505806,1.0,330.68536376953125,"['s', 'space']",0.8619279861450195,359.0
"['s', 'd']",modular,361,img/target_10.png,48,"['j', 'k']",7,0.05000000074505806,1.0,331.6354675292969,"['d', 's']",0.6250021457672119,360.0
"['a', 's']",modular,362,img/target_6.png,48,"['space', 'j']",9,0.05000000074505806,1.0,332.3527526855469,"['a', 's']",0.6744680404663086,361.0
"['s', 'd']",modular,363,img/target_10.png,48,"['j', 'k']",7,0.05000000074505806,1.0,333.1183166503906,"['d', 's']",0.9169199466705322,362.0
"['s', 'space']",modular,364,img/target_12.png,48,"['j', 'semicolon']",6,0.05000000074505806,1.0,334.1352233886719,"['s', 'space']",0.6931099891662598,363.0
"['s', 'd']",modular,365,img/target_10.png,48,"['j', 'k']",7,0.05000000074505806,1.0,334.91998291015625,"['d', 's']",0.5959432125091553,364.0
"['s', 'f']",modular,366,img/target_11.png,48,"['j', 'l']",8,0.05000000074505806,1.0,335.61944580078125,"['f', 's']",0.888390064239502,365.0
"['s', 'd']",modular,367,img/target_10.png,48,"['j', 'k']",7,0.05000000074505806,1.0,336.60272216796875,"['d', 's']",0.5535340309143066,366.0
"['a', 's']",modular,368,img/target_6.png,48,"['space', 'j']",9,0.05000000074505806,1.0,337.2532958984375,"['a', 's']",0.6545851230621338,367.0
"['s', 'space']",modular,369,img/target_12.png,48,"['j', 'semicolon']",6,0.05000000074505806,1.0,338.0023498535156,"['s', 'space']",0.6655828952789307,368.0
"['s', 'd']",modular,370,img/target_10.png,48,"['j', 'k']",7,0.05000000074505806,1.0,338.75286865234375,"['d', 's']",0.5701298713684082,369.0
"['a', 's']",modular,371,img/target_6.png,48,"['space', 'j']",9,0.05000000074505806,1.0,339.41937255859375,"['a', 's']",0.6075360774993896,370.0
"['s', 'f']",modular,372,img/target_11.png,48,"['j', 'l']",8,0.05000000074505806,1.0,340.12054443359375,"['f', 's']",1.0344669818878174,371.0
"['a', 'space']",modular,373,img/target_9.png,48,"['space', 'semicolon']",5,0.05000000074505806,1.0,341.25323486328125,"['a', 'space']",0.8617088794708252,372.0
"['s', 'f']",modular,374,img/target_11.png,48,"['j', 'l']",8,0.05000000074505806,1.0,342.2037353515625,"['f', 's']",0.9602851867675781,373.0
"['s', 'd']",modular,375,img/target_10.png,48,"['j', 'k']",7,0.05000000074505806,1.0,343.2528076171875,"['d', 's']",0.7910270690917969,374.0
"['s', 'space']",modular,376,img/target_12.png,48,"['j', 'semicolon']",6,0.05000000074505806,1.0,344.1372375488281,"['s', 'space']",1.0985689163208008,375.0
"['s', 'f']",modular,377,img/target_11.png,48,"['j', 'l']",8,0.05000000074505806,1.0,345.33697509765625,"['f', 's']",1.0824670791625977,376.0
"['a', 's']",modular,378,img/target_6.png,48,"['space', 'j']",9,0.05000000074505806,1.0,346.52093505859375,"['a', 's']",0.6506469249725342,377.0
"['s', 'f']",modular,379,img/target_11.png,48,"['j', 'l']",8,0.05000000074505806,1.0,347.2705993652344,"['f', 's']",0.7080981731414795,378.0
"['s', 'space']",modular,380,img/target_12.png,48,"['j', 'semicolon']",6,0.05000000074505806,1.0,348.06988525390625,"['s', 'space']",0.7408599853515625,379.0
"['a', 'space']",modular,381,img/target_9.png,48,"['space', 'semicolon']",5,0.05000000074505806,1.0,348.9034118652344,"['a', 'space']",0.8043031692504883,380.0
"['s', 'f']",modular,382,img/target_11.png,48,"['j', 'l']",8,0.05000000074505806,0.0,349.803955078125,"['f', 's']",0.6307260990142822,381.0
"['a', 's']",modular,383,img/target_6.png,48,"['space', 'j']",9,0.05000000074505806,1.0,350.9047546386719,"['a', 's']",0.673907995223999,382.0
"['d', 'space']",modular,384,img/target_14.png,48,"['k', 'semicolon']",0,0.05000000074505806,1.0,351.67108154296875,"['d', 'space']",0.891402006149292,383.0
"['a', 'd']",modular,385,img/target_7.png,48,"['space', 'k']",1,0.05000000074505806,1.0,352.6539611816406,"['a', 'd']",0.7645330429077148,384.0
"['a', 'f']",modular,386,img/target_8.png,48,"['space', 'l']",3,0.05000000074505806,1.0,353.5041809082031,"['a', 'f']",0.8029088973999023,385.0
"['d', 'f']",modular,387,img/target_13.png,48,"['k', 'l']",2,0.05000000074505806,0.0,354.40472412109375,"['d', 'f']",0.6936919689178467,386.0
"['d', 'space']",modular,388,img/target_14.png,48,"['k', 'semicolon']",0,0.05000000074505806,1.0,355.9378356933594,"['d', 'space']",0.889319896697998,387.0
"['a', 'd']",modular,389,img/target_7.png,48,"['space', 'k']",1,0.05000000074505806,1.0,356.9212646484375,"['a', 'd']",0.7458891868591309,388.0
"['d', 'space']",modular,390,img/target_14.png,48,"['k', 'semicolon']",0,0.05000000074505806,1.0,357.75537109375,"['d', 'space']",0.9520828723907471,389.0
"['a', 'd']",modular,391,img/target_7.png,48,"['space', 'k']",1,0.05000000074505806,1.0,358.8041687011719,"['a', 'd']",0.670295000076294,390.0
"['d', 'space']",modular,392,img/target_14.png,48,"['k', 'semicolon']",0,0.05000000074505806,1.0,359.5736999511719,"['d', 'space']",0.9804649353027344,391.0
"['a', 'd']",modular,393,img/target_7.png,48,"['space', 'k']",1,0.05000000074505806,1.0,360.6552429199219,"['a', 'd']",0.6269822120666504,392.0
"['f', 'space']",modular,394,img/target_15.png,48,"['l', 'semicolon']",4,0.05000000074505806,0.0,361.3717346191406,"['f', 'space']",0.8086490631103516,393.0
"['d', 'f']",modular,395,img/target_13.png,48,"['k', 'l']",2,0.05000000074505806,1.0,363.387939453125,"['d', 'f']",0.7421598434448242,394.0
"['a', 'f']",modular,396,img/target_8.png,48,"['space', 'l']",3,0.05000000074505806,1.0,364.26611328125,"['a', 'f']",0.6091790199279785,395.0
"['a', 'd']",modular,397,img/target_7.png,48,"['space', 'k']",1,0.05000000074505806,0.0,364.9717712402344,"['a', 'd']",0.6951720714569092,396.0
"['d', 'space']",modular,398,img/target_14.png,48,"['k', 'semicolon']",0,0.05000000074505806,1.0,366.4049072265625,"['d', 'space']",0.7738988399505615,397.0
"['d', 'f']",modular,399,img/target_13.png,48,"['k', 'l']",2,0.05000000074505806,1.0,367.2725524902344,"['d', 'f']",0.6423079967498779,398.0
"['a', 'd']",modular,400,img/target_7.png,48,"['space', 'k']",1,0.05000000074505806,1.0,368.00604248046875,"['a', 'd']",0.675847053527832,399.0
"['f', 'space']",modular,401,img/target_15.png,48,"['l', 'semicolon']",4,0.05000000074505806,1.0,368.7726135253906,"['f', 'space']",0.7179620265960693,400.0
"['a', 'f']",modular,402,img/target_8.png,48,"['space', 'l']",3,0.05000000074505806,1.0,369.5894470214844,"['a', 'f']",0.8284978866577148,401.0
"['d', 'space']",modular,403,img/target_14.png,48,"['k', 'semicolon']",0,0.05000000074505806,1.0,370.5060119628906,"['d', 'space']",0.6319329738616943,402.0
"['a', 'f']",modular,404,img/target_8.png,48,"['space', 'l']",3,0.05000000074505806,1.0,371.2393493652344,"['a', 'f']",0.5794229507446289,403.0
"['f', 'space']",modular,405,img/target_15.png,48,"['l', 'semicolon']",4,0.05000000074505806,1.0,371.9059143066406,"['f', 'space']",0.7120568752288818,404.0
"['a', 'f']",modular,406,img/target_8.png,48,"['space', 'l']",3,0.05000000074505806,1.0,372.70684814453125,"['a', 'f']",0.6717879772186279,405.0
"['d', 'space']",modular,407,img/target_14.png,48,"['k', 'semicolon']",0,0.05000000074505806,1.0,373.47332763671875,"['d', 'space']",0.7614009380340576,406.0
"['a', 'd']",modular,408,img/target_7.png,48,"['space', 'k']",1,0.05000000074505806,1.0,374.3227233886719,"['a', 'd']",0.6950318813323975,407.0
"['d', 'f']",modular,409,img/target_13.png,48,"['k', 'l']",2,0.05000000074505806,1.0,375.1063537597656,"['d', 'f']",0.6154420375823975,408.0
"['a', 'f']",modular,410,img/target_8.png,48,"['space', 'l']",3,0.05000000074505806,1.0,375.8058166503906,"['a', 'f']",0.7729811668395996,409.0
"['d', 'f']",modular,411,img/target_13.png,48,"['k', 'l']",2,0.05000000074505806,0.0,376.6732482910156,"['d', 'f']",0.5773830413818359,410.0
"['f', 'space']",modular,412,img/target_15.png,48,"['l', 'semicolon']",4,0.05000000074505806,0.0,377.9400634765625,"['f', 'space']",0.6704840660095215,411.0
"['a', 'f']",modular,413,img/target_8.png,48,"['space', 'l']",3,0.05000000074505806,1.0,378.9903259277344,"['a', 'f']",0.6591751575469971,412.0
"['a', 'd']",modular,414,img/target_7.png,48,"['space', 'k']",1,0.05000000074505806,1.0,379.7405090332031,"['a', 'd']",0.8450000286102295,413.0
"['d', 'f']",modular,415,img/target_13.png,48,"['k', 'l']",2,0.05000000074505806,1.0,380.6736145019531,"['d', 'f']",0.6399509906768799,414.0
"['d', 'space']",modular,416,img/target_14.png,48,"['k', 'semicolon']",0,0.05000000074505806,1.0,381.4073486328125,"['d', 'space']",0.9645218849182129,415.0
"['a', 's']",modular,417,img/target_6.png,48,"['space', 'j']",9,0.05000000074505806,1.0,382.4728698730469,"['a', 's']",0.7846839427947998,416.0
"['s', 'd']",modular,418,img/target_10.png,48,"['j', 'k']",7,0.05000000074505806,1.0,383.358642578125,"['d', 's']",0.6748120784759521,417.0
"['s', 'f']",modular,419,img/target_11.png,48,"['j', 'l']",8,0.05000000074505806,1.0,384.12432861328125,"['f', 's']",0.813133955001831,418.0
"['s', 'space']",modular,420,img/target_12.png,48,"['j', 'semicolon']",6,0.05000000074505806,1.0,385.040771484375,"['s', 'space']",0.7213559150695801,419.0
"['s', 'd']",modular,421,img/target_10.png,48,"['j', 'k']",7,0.05000000074505806,1.0,385.8573913574219,"['d', 's']",0.7280399799346924,420.0
"['a', 'space']",modular,422,img/target_9.png,48,"['space', 'semicolon']",5,0.05000000074505806,1.0,386.6738586425781,"['a', 'space']",0.8724789619445801,421.0
"['s', 'space']",modular,423,img/target_12.png,48,"['j', 'semicolon']",6,0.05000000074505806,1.0,387.64013671875,"['s', 'space']",0.7530479431152344,422.0
"['a', 'space']",modular,424,img/target_9.png,48,"['space', 'semicolon']",5,0.05000000074505806,1.0,388.4910888671875,"['a', 'space']",0.8629519939422607,423.0
"['s', 'd']",modular,425,img/target_10.png,48,"['j', 'k']",7,0.05000000074505806,1.0,389.44073486328125,"['d', 's']",0.6252360343933105,424.0
"['s', 'space']",modular,426,img/target_12.png,48,"['j', 'semicolon']",6,0.05000000074505806,0.0,390.1581115722656,"['s', 'space']",0.5710151195526123,425.0
"['a', 'space']",modular,427,img/target_9.png,48,"['space', 'semicolon']",5,0.05000000074505806,1.0,391.22491455078125,"['a', 'space']",0.6721382141113281,426.0
"['s', 'd']",modular,428,img/target_10.png,48,"['j', 'k']",7,0.05000000074505806,1.0,391.9913635253906,"['d', 's']",0.5936601161956787,427.0
"['a', 'space']",modular,429,img/target_9.png,48,"['space', 'semicolon']",5,0.05000000074505806,1.0,392.67523193359375,"['a', 'space']",0.5498270988464355,428.0
"['s', 'space']",modular,430,img/target_12.png,48,"['j', 'semicolon']",6,0.05000000074505806,1.0,393.3239440917969,"['s', 'space']",0.8542249202728271,429.0
"['s', 'd']",modular,431,img/target_10.png,48,"['j', 'k']",7,0.05000000074505806,1.0,394.27520751953125,"['d', 's']",0.6709311008453369,430.0
"['a', 's']",modular,432,img/target_6.png,48,"['space', 'j']",9,0.05000000074505806,1.0,395.0414123535156,"['a', 's']",0.7126281261444092,431.0
"['d', 'space']",modular,433,img/target_14.png,48,"['k', 'semicolon']",0,0.05000000074505806,0.0,395.84173583984375,"['d', 'space']",0.7041211128234863,432.0
"['a', 's']",modular,434,img/target_6.png,48,"['space', 'j']",9,0.05000000074505806,1.0,397.5586853027344,"['a', 's']",0.6662859916687012,433.0
"['s', 'space']",modular,435,img/target_12.png,48,"['j', 'semicolon']",6,0.05000000074505806,0.0,398.308837890625,"['s', 'space']",0.9088430404663086,434.0
"['s', 'd']",modular,436,img/target_10.png,48,"['j', 'k']",7,0.05000000074505806,1.0,400.15814208984375,"['d', 's']",0.6187229156494141,435.0
"['s', 'space']",modular,437,img/target_12.png,48,"['j', 'semicolon']",6,0.05000000074505806,1.0,400.8758544921875,"['s', 'space']",0.7179460525512695,436.0
"['a', 'space']",modular,438,img/target_9.png,48,"['space', 'semicolon']",5,0.05000000074505806,1.0,401.6925964355469,"['a', 'space']",0.7172300815582275,437.0
"['f', 'space']",modular,439,img/target_15.png,48,"['l', 'semicolon']",4,0.05000000074505806,1.0,402.5094909667969,"['f', 'space']",1.4031119346618652,438.0
"['a', 'space']",modular,440,img/target_9.png,48,"['space', 'semicolon']",5,0.05000000074505806,1.0,404.00823974609375,"['a', 'space']",0.6964969635009766,439.0
"['f', 'space']",modular,441,img/target_15.png,48,"['l', 'semicolon']",4,0.05000000074505806,1.0,404.79296875,"['f', 'space']",0.7204558849334717,440.0
"['a', 'd']",modular,442,img/target_7.png,48,"['space', 'k']",1,0.05000000074505806,0.0,405.6086120605469,"['a', 'd']",0.5838592052459717,441.0
"['d', 'space']",modular,443,img/target_14.png,48,"['k', 'semicolon']",0,0.05000000074505806,1.0,406.89300537109375,"['d', 'space']",0.7557289600372314,442.0
"['d', 'f']",modular,444,img/target_13.png,48,"['k', 'l']",2,0.05000000074505806,0.0,407.7431640625,"['d', 'f']",0.6105132102966309,443.0
"['a', 'd']",modular,445,img/target_7.png,48,"['space', 'k']",1,0.05000000074505806,1.0,408.7766418457031,"['a', 'd']",0.7203049659729004,444.0
"['d', 'space']",modular,446,img/target_14.png,48,"['k', 'semicolon']",0,0.05000000074505806,1.0,409.5933837890625,"['d', 'space']",0.9032330513000488,445.0
"['a', 'd']",modular,447,img/target_7.png,48,"['space', 'k']",1,0.05000000074505806,1.0,410.59429931640625,"['a', 'd']",0.6152918338775635,446.0
"['f', 'space']",modular,448,img/target_15.png,48,"['l', 'semicolon']",4,0.05000000074505806,0.0,411.30950927734375,"['f', 'space']",0.6988861560821533,447.0
"['a', 'f']",modular,449,img/target_8.png,48,"['space', 'l']",3,0.05000000074505806,1.0,413.1600036621094,"['a', 'f']",0.7362380027770996,448.0
"['a', 'd']",modular,450,img/target_7.png,48,"['space', 'k']",1,0.05000000074505806,1.0,413.9939880371094,"['a', 'd']",0.7434759140014648,449.0
"['d', 'f']",modular,451,img/target_13.png,48,"['k', 'l']",2,0.05000000074505806,1.0,414.82720947265625,"['d', 'f']",0.9181098937988281,450.0
"['f', 'space']",modular,452,img/target_15.png,48,"['l', 'semicolon']",4,0.05000000074505806,1.0,415.8436584472656,"['f', 'space']",1.0445399284362793,451.0
"['a', 'space']",modular,453,img/target_9.png,48,"['space', 'semicolon']",5,0.05000000074505806,1.0,416.9801940917969,"['a', 'space']",0.7804269790649414,452.0
"['f', 'space']",modular,454,img/target_15.png,48,"['l', 'semicolon']",4,0.05000000074505806,1.0,417.8608093261719,"['f', 'space']",0.7633340358734131,453.0
"['d', 'f']",modular,455,img/target_13.png,48,"['k', 'l']",2,0.05000000074505806,1.0,418.7276611328125,"['d', 'f']",0.7605700492858887,454.0
"['a', 'f']",modular,456,img/target_8.png,48,"['space', 'l']",3,0.05000000074505806,1.0,419.5763854980469,"['a', 'f']",0.7527170181274414,455.0
"['f', 'space']",modular,457,img/target_15.png,48,"['l', 'semicolon']",4,0.05000000074505806,1.0,420.4278259277344,"['f', 'space']",1.6762268543243408,456.0
"['d', 'f']",modular,458,img/target_13.png,48,"['k', 'l']",2,0.05000000074505806,1.0,422.19439697265625,"['d', 'f']",0.7502849102020264,457.0
"['a', 'f']",modular,459,img/target_8.png,48,"['space', 'l']",3,0.05000000074505806,1.0,423.0445251464844,"['a', 'f']",0.7634530067443848,458.0
"['d', 'f']",modular,460,img/target_13.png,48,"['k', 'l']",2,0.05000000074505806,1.0,423.91094970703125,"['d', 'f']",0.601531982421875,459.0
"['a', 'd']",modular,461,img/target_7.png,48,"['space', 'k']",1,0.05000000074505806,1.0,424.6112365722656,"['a', 'd']",0.72552490234375,460.0
"['a', 'f']",modular,462,img/target_8.png,48,"['space', 'l']",3,0.05000000074505806,1.0,425.4279479980469,"['a', 'f']",0.6767327785491943,461.0
"['d', 'space']",modular,463,img/target_14.png,48,"['k', 'semicolon']",0,0.05000000074505806,1.0,426.1943664550781,"['d', 'space']",0.9904181957244873,462.0
"['a', 'd']",modular,464,img/target_7.png,48,"['space', 'k']",1,0.05000000074505806,1.0,427.27783203125,"['a', 'd']",0.7380697727203369,463.0
"['d', 'f']",modular,465,img/target_13.png,48,"['k', 'l']",2,0.05000000074505806,1.0,428.1116638183594,"['d', 'f']",0.6572451591491699,464.0
"['a', 'f']",modular,466,img/target_8.png,48,"['space', 'l']",3,0.05000000074505806,1.0,428.8620300292969,"['a', 'f']",0.658411979675293,465.0
"['a', 'd']",modular,467,img/target_7.png,48,"['space', 'k']",1,0.05000000074505806,0.0,429.61236572265625,"['a', 'd']",0.57151198387146,466.0
"['d', 'space']",modular,468,img/target_14.png,48,"['k', 'semicolon']",0,0.05000000074505806,1.0,431.16229248046875,"['d', 'space']",0.8533952236175537,467.0
"['a', 'd']",modular,469,img/target_7.png,48,"['space', 'k']",1,0.05000000074505806,1.0,432.11083984375,"['a', 'd']",0.6733629703521729,468.0
"['d', 'space']",modular,470,img/target_14.png,48,"['k', 'semicolon']",0,0.05000000074505806,1.0,432.87896728515625,"['d', 'space']",0.5850770473480225,469.0
"['a', 's']",modular,471,img/target_6.png,48,"['space', 'j']",9,0.05000000074505806,0.0,433.56121826171875,"['a', 's']",0.5262460708618164,470.0
"['s', 'f']",modular,472,img/target_11.png,48,"['j', 'l']",8,0.05000000074505806,1.0,434.7619323730469,"['f', 's']",1.311048984527588,471.0
"['a', 's']",modular,473,img/target_6.png,48,"['space', 'j']",9,0.05000000074505806,1.0,436.16290283203125,"['a', 's']",0.6693770885467529,472.0
"['d', 'space']",modular,474,img/target_14.png,48,"['k', 'semicolon']",0,0.05000000074505806,1.0,436.9280700683594,"['d', 'space']",0.8000810146331787,473.0
"['a', 'd']",modular,475,img/target_7.png,48,"['space', 'k']",1,0.05000000074505806,1.0,437.8298034667969,"['a', 'd']",0.7943630218505859,474.0
"['f', 'space']",modular,476,img/target_15.png,48,"['l', 'semicolon']",4,0.05000000074505806,0.0,438.7122497558594,"['f', 'space']",1.0790178775787354,475.0
"['a', 'd']",modular,477,img/target_7.png,48,"['space', 'k']",1,0.05000000074505806,1.0,440.295166015625,"['a', 'd']",0.9760298728942871,476.0
"['d', 'f']",modular,478,img/target_13.png,48,"['k', 'l']",2,0.05000000074505806,1.0,441.363037109375,"['d', 'f']",1.0449120998382568,477.0
"['f', 'space']",modular,479,img/target_15.png,48,"['l', 'semicolon']",4,0.05000000074505806,1.0,442.4962158203125,"['f', 'space']",0.7838840484619141,478.0
"['a', 'd']",modular,480,img/target_7.png,48,"['space', 'k']",1,0.05000000074505806,1.0,443.37982177734375,"['a', 'd']",0.787402868270874,479.0
"['a', 'f']",modular,481,img/target_8.png,48,"['space', 'l']",3,0.05000000074505806,1.0,444.2629089355469,"['a', 'f']",1.120182991027832,480.0
"['a', 'd']",modular,482,img/target_7.png,48,"['space', 'k']",1,0.05000000074505806,1.0,445.47900390625,"['a', 'd']",0.8742401599884033,481.0
"['d', 'space']",modular,483,img/target_14.png,48,"['k', 'semicolon']",0,0.05000000074505806,1.0,446.4466857910156,"['d', 'space']",0.7053408622741699,482.0
"['a', 'f']",modular,484,img/target_8.png,48,"['space', 'l']",3,0.05000000074505806,1.0,447.2464599609375,"['a', 'f']",0.7774319648742676,483.0
"['a', 'd']",modular,485,img/target_7.png,48,"['space', 'k']",1,0.05000000074505806,1.0,448.1128845214844,"['a', 'd']",0.6708099842071533,484.0
"['f', 'space']",modular,486,img/target_15.png,48,"['l', 'semicolon']",4,0.05000000074505806,0.0,448.88018798828125,"['f', 'space']",0.7989161014556885,485.0
"['a', 'd']",modular,487,img/target_7.png,48,"['space', 'k']",1,0.05000000074505806,0.0,450.0129089355469,"['a', 'd']",0.8507049083709717,486.0
"['a', 'f']",modular,488,img/target_8.png,48,"['space', 'l']",3,0.05000000074505806,1.0,451.8306884765625,"['a', 'f']",1.0888769626617432,487.0
"['f', 'space']",modular,489,img/target_15.png,48,"['l', 'semicolon']",4,0.05000000074505806,1.0,453.0138854980469,"['f', 'space']",0.6741151809692383,488.0
"['a', 'f']",modular,490,img/target_8.png,48,"['space', 'l']",3,0.05000000074505806,0.0,453.7796630859375,"['a', 'f']",0.7071349620819092,489.0
"['f', 'space']",modular,491,img/target_15.png,48,"['l', 'semicolon']",4,0.05000000074505806,1.0,455.16326904296875,"['f', 'space']",0.5739619731903076,490.0
"['d', 'f']",modular,492,img/target_13.png,48,"['k', 'l']",2,0.05000000074505806,1.0,455.830810546875,"['d', 'f']",0.7040300369262695,491.0
"['f', 'space']",modular,493,img/target_15.png,48,"['l', 'semicolon']",4,0.05000000074505806,1.0,456.63018798828125,"['f', 'space']",0.7697398662567139,492.0
"['a', 'd']",modular,494,img/target_7.png,48,"['space', 'k']",1,0.05000000074505806,1.0,457.49664306640625,"['a', 'd']",0.7741091251373291,493.0
"['d', 'space']",modular,495,img/target_14.png,48,"['k', 'semicolon']",0,0.05000000074505806,1.0,458.36419677734375,"['d', 'space']",0.8034989833831787,494.0
"['a', 's']",modular,496,img/target_6.png,48,"['space', 'j']",9,0.05000000074505806,0.0,459.2637634277344,"['a', 's']",0.7197120189666748,495.0
"['d', 'space']",modular,497,img/target_14.png,48,"['k', 'semicolon']",0,0.05000000074505806,0.0,460.697265625,"['d', 'space']",0.758126974105835,496.0
"['a', 'f']",modular,498,img/target_8.png,48,"['space', 'l']",3,0.05000000074505806,1.0,463.1481018066406,"['a', 'f']",0.963407039642334,497.0
"['d', 'f']",modular,499,img/target_13.png,48,"['k', 'l']",2,0.05000000074505806,1.0,464.1973571777344,"['d', 'f']",0.6659598350524902,498.0
"['d', 'space']",modular,500,img/target_14.png,48,"['k', 'semicolon']",0,0.05000000074505806,1.0,464.9651184082031,"['d', 'space']",1.0181808471679688,499.0
"['d', 'f']",modular,501,img/target_13.png,48,"['k', 'l']",2,0.05000000074505806,1.0,466.0818176269531,"['d', 'f']",0.717703104019165,500.0
"['a', 'd']",modular,502,img/target_7.png,48,"['space', 'k']",1,0.05000000074505806,1.0,466.8977355957031,"['a', 'd']",0.7096641063690186,501.0
"['d', 'f']",modular,503,img/target_13.png,48,"['k', 'l']",2,0.05000000074505806,1.0,467.699951171875,"['d', 'f']",0.6433899402618408,502.0
"['a', 'f']",modular,504,img/target_8.png,48,"['space', 'l']",3,0.05000000074505806,1.0,468.4319763183594,"['a', 'f']",0.6863389015197754,503.0
"['d', 'f']",modular,505,img/target_13.png,48,"['k', 'l']",2,0.05000000074505806,1.0,469.2149658203125,"['d', 'f']",0.6161890029907227,504.0
"['f', 'space']",modular,506,img/target_15.png,48,"['l', 'semicolon']",4,0.05000000074505806,1.0,469.9320983886719,"['f', 'space']",0.6908669471740723,505.0
"['a', 'space']",modular,507,img/target_9.png,48,"['space', 'semicolon']",5,0.05000000074505806,0.0,470.7154541015625,"['a', 'space']",0.6268789768218994,506.0
"['s', 'd']",modular,508,img/target_10.png,48,"['j', 'k']",7,0.05000000074505806,1.0,472.3988342285156,"['d', 's']",0.6718618869781494,507.0
"['s', 'f']",modular,509,img/target_11.png,48,"['j', 'l']",8,0.05000000074505806,1.0,473.16558837890625,"['f', 's']",0.6976938247680664,508.0
"['a', 's']",modular,510,img/target_6.png,48,"['space', 'j']",9,0.05000000074505806,1.0,473.94866943359375,"['a', 's']",0.6895749568939209,509.0
"['s', 'd']",modular,511,img/target_10.png,48,"['j', 'k']",7,0.05000000074505806,1.0,474.73297119140625,"['d', 's']",0.6491279602050781,510.0
"['a', 's']",modular,512,img/target_6.png,48,"['space', 'j']",9,0.05000000074505806,1.0,475.4653625488281,"['a', 's']",0.6685729026794434,511.0
"['d', 'space']",modular,513,img/target_14.png,48,"['k', 'semicolon']",0,0.05000000074505806,0.0,476.2331237792969,"['d', 'space']",0.9818289279937744,512.0
"['a', 's']",modular,514,img/target_6.png,48,"['space', 'j']",9,0.05000000074505806,1.0,478.43212890625,"['a', 's']",0.6945271492004395,513.0
"['d', 'space']",modular,515,img/target_14.png,48,"['k', 'semicolon']",0,0.05000000074505806,1.0,479.2162780761719,"['d', 'space']",1.3176019191741943,514.0
"['a', 'f']",modular,516,img/target_8.png,48,"['space', 'l']",3,0.05000000074505806,1.0,480.63397216796875,"['a', 'f']",0.8130779266357422,515.0
"['d', 'f']",modular,517,img/target_13.png,48,"['k', 'l']",2,0.05000000074505806,1.0,481.53338623046875,"['d', 'f']",0.8012738227844238,516.0
"['d', 'space']",modular,518,img/target_14.png,48,"['k', 'semicolon']",0,0.05000000074505806,1.0,482.43402099609375,"['d', 'space']",0.8838531970977783,517.0
"['a', 'd']",modular,519,img/target_7.png,48,"['space', 'k']",1,0.05000000074505806,1.0,483.4169616699219,"['a', 'd']",0.9337129592895508,518.0
"['f', 'space']",modular,520,img/target_15.png,48,"['l', 'semicolon']",4,0.05000000074505806,1.0,484.4495544433594,"['f', 'space']",0.948775053024292,519.0
"['a', 'd']",modular,521,img/target_7.png,48,"['space', 'k']",1,0.05000000074505806,1.0,485.50018310546875,"['a', 'd']",0.7944059371948242,520.0
"['d', 'f']",modular,522,img/target_13.png,48,"['k', 'l']",2,0.05000000074505806,1.0,486.38323974609375,"['d', 'f']",0.9504311084747314,521.0
"['f', 'space']",modular,523,img/target_15.png,48,"['l', 'semicolon']",4,0.05000000074505806,1.0,487.4332275390625,"['f', 'space']",0.7894470691680908,522.0
"['d', 'f']",modular,524,img/target_13.png,48,"['k', 'l']",2,0.05000000074505806,1.0,488.3177490234375,"['d', 'f']",0.6958298683166504,523.0
"['a', 'd']",modular,525,img/target_7.png,48,"['space', 'k']",1,0.05000000074505806,1.0,489.1000061035156,"['a', 'd']",0.65047287940979,524.0
"['d', 'f']",modular,526,img/target_13.png,48,"['k', 'l']",2,0.05000000074505806,1.0,489.8509216308594,"['d', 'f']",0.8436830043792725,525.0
"['a', 'f']",modular,527,img/target_8.png,48,"['space', 'l']",3,0.05000000074505806,1.0,490.7843322753906,"['a', 'f']",0.7421901226043701,526.0
"['d', 'space']",modular,528,img/target_14.png,48,"['k', 'semicolon']",0,0.05000000074505806,1.0,491.6177062988281,"['d', 'space']",0.8358910083770752,527.0
"['a', 'f']",modular,529,img/target_8.png,48,"['space', 'l']",3,0.05000000074505806,1.0,492.5501708984375,"['a', 'f']",0.7272751331329346,528.0
"['d', 'space']",modular,530,img/target_14.png,48,"['k', 'semicolon']",0,0.05000000074505806,1.0,493.3671875,"['d', 'space']",0.7502241134643555,529.0
"['a', 'f']",modular,531,img/target_8.png,48,"['space', 'l']",3,0.05000000074505806,1.0,494.21697998046875,"['a', 'f']",0.6212930679321289,530.0
"['d', 'f']",modular,532,img/target_13.png,48,"['k', 'l']",2,0.05000000074505806,0.0,494.9338684082031,"['d', 'f']",0.6082069873809814,531.0
"['f', 'space']",modular,533,img/target_15.png,48,"['l', 'semicolon']",4,0.05000000074505806,1.0,496.5342712402344,"['f', 'space']",0.791654109954834,532.0
"['a', 'd']",modular,534,img/target_7.png,48,"['space', 'k']",1,0.05000000074505806,1.0,497.4181213378906,"['a', 'd']",0.7640371322631836,533.0
"['d', 'space']",modular,535,img/target_14.png,48,"['k', 'semicolon']",0,0.05000000074505806,1.0,498.2847900390625,"['d', 'space']",0.9133548736572266,534.0
"['a', 's']",modular,536,img/target_6.png,48,"['space', 'j']",9,0.05000000074505806,1.0,499.3022155761719,"['a', 's']",0.6560208797454834,535.0
"['d', 'space']",modular,537,img/target_14.png,48,"['k', 'semicolon']",0,0.05000000074505806,1.0,500.0511779785156,"['d', 'space']",0.8271570205688477,536.0
"['a', 'f']",modular,538,img/target_8.png,48,"['space', 'l']",3,0.05000000074505806,1.0,500.96856689453125,"['a', 'f']",0.6936779022216797,537.0
"['d', 'f']",modular,539,img/target_13.png,48,"['k', 'l']",2,0.05000000074505806,1.0,501.75164794921875,"['d', 'f']",0.7422599792480469,538.0
"['d', 'space']",modular,540,img/target_14.png,48,"['k', 'semicolon']",0,0.05000000074505806,1.0,502.5844421386719,"['d', 'space']",0.8136029243469238,539.0
"['d', 'f']",modular,541,img/target_13.png,48,"['k', 'l']",2,0.05000000074505806,1.0,503.485595703125,"['d', 'f']",0.7603678703308105,540.0
"['f', 'space']",modular,542,img/target_15.png,48,"['l', 'semicolon']",4,0.05000000074505806,1.0,504.3356628417969,"['f', 'space']",0.734666109085083,541.0
"['a', 'space']",modular,543,img/target_9.png,48,"['space', 'semicolon']",5,0.05000000074505806,1.0,505.168212890625,"['a', 'space']",0.765679121017456,542.0
"['s', 'space']",modular,544,img/target_12.png,48,"['j', 'semicolon']",6,0.05000000074505806,1.0,506.0352783203125,"['s', 'space']",0.8025898933410645,543.0
"['s', 'd']",modular,545,img/target_10.png,48,"['j', 'k']",7,0.05000000074505806,1.0,506.9352111816406,"['d', 's']",0.7199130058288574,544.0
"['a', 's']",modular,546,img/target_6.png,48,"['space', 'j']",9,0.05000000074505806,1.0,507.7520751953125,"['a', 's']",0.678138017654419,545.0
"['d', 'space']",modular,547,img/target_14.png,48,"['k', 'semicolon']",0,0.05000000074505806,1.0,508.51800537109375,"['d', 'space']",0.7122368812561035,546.0
"['a', 's']",modular,548,img/target_6.png,48,"['space', 'j']",9,0.05000000074505806,1.0,509.3193359375,"['a', 's']",0.6637961864471436,547.0
"['d', 'space']",modular,549,img/target_14.png,48,"['k', 'semicolon']",0,0.05000000074505806,1.0,510.069580078125,"['d', 'space']",0.6321539878845215,548.0
"['a', 'f']",modular,550,img/target_8.png,48,"['space', 'l']",3,0.05000000074505806,1.0,510.8019104003906,"['a', 'f']",0.795875072479248,549.0
"['d', 'f']",modular,551,img/target_13.png,48,"['k', 'l']",2,0.05000000074505806,1.0,511.6852111816406,"['d', 'f']",0.7288110256195068,550.0
"['d', 'space']",modular,552,img/target_14.png,48,"['k', 'semicolon']",0,0.05000000074505806,1.0,512.5029296875,"['d', 'space']",0.7507529258728027,551.0
"['a', 'f']",modular,553,img/target_8.png,48,"['space', 'l']",3,0.05000000074505806,1.0,513.3532104492188,"['a', 'f']",0.7404670715332031,552.0
"['d', 'f']",modular,554,img/target_13.png,48,"['k', 'l']",2,0.05000000074505806,1.0,514.1864624023438,"['d', 'f']",0.6593420505523682,553.0
"['a', 'd']",modular,555,img/target_7.png,48,"['space', 'k']",1,0.05000000074505806,1.0,514.9371948242188,"['a', 'd']",0.6525399684906006,554.0
"['a', 'f']",modular,556,img/target_8.png,48,"['space', 'l']",3,0.05000000074505806,1.0,515.6868896484375,"['a', 'f']",0.7108068466186523,555.0
"['d', 'f']",modular,557,img/target_13.png,48,"['k', 'l']",2,0.05000000074505806,1.0,516.486572265625,"['d', 'f']",0.6798200607299805,556.0
"['a', 'f']",modular,558,img/target_8.png,48,"['space', 'l']",3,0.05000000074505806,1.0,517.2697143554688,"['a', 'f']",0.6564850807189941,557.0
"['d', 'space']",modular,559,img/target_14.png,48,"['k', 'semicolon']",0,0.05000000074505806,1.0,518.0198364257812,"['d', 'space']",0.7782249450683594,558.0
"['a', 's']",modular,560,img/target_6.png,48,"['space', 'j']",9,0.05000000074505806,1.0,518.885986328125,"['a', 's']",0.672389030456543,559.0
"['s', 'f']",modular,561,img/target_11.png,48,"['j', 'l']",8,0.05000000074505806,1.0,519.653076171875,"['f', 's']",1.0084340572357178,560.0
"['s', 'd']",modular,562,img/target_10.png,48,"['j', 'k']",7,0.05000000074505806,1.0,520.7534790039062,"['d', 's']",0.6517529487609863,561.0
"['s', 'f']",modular,563,img/target_11.png,48,"['j', 'l']",8,0.05000000074505806,1.0,521.5030517578125,"['f', 's']",0.7503430843353271,562.0
"['a', 's']",modular,564,img/target_6.png,48,"['space', 'j']",9,0.05000000074505806,1.0,522.3531494140625,"['a', 's']",0.6760931015014648,563.0
"['d', 'space']",modular,565,img/target_14.png,48,"['k', 'semicolon']",0,0.05000000074505806,0.0,523.12060546875,"['d', 'space']",2.29367995262146,564.0
"['a', 'f']",modular,566,img/target_8.png,48,"['space', 'l']",3,0.05000000074505806,1.0,526.1533203125,"['a', 'f']",1.4679439067840576,565.0
"['d', 'space']",modular,567,img/target_14.png,48,"['k', 'semicolon']",0,0.05000000074505806,1.0,527.7206420898438,"['d', 'space']",0.628917932510376,566.0
"['a', 's']",modular,568,img/target_6.png,48,"['space', 'j']",9,0.05000000074505806,1.0,528.4370727539062,"['a', 's']",0.7684412002563477,567.0
"['s', 'space']",modular,569,img/target_12.png,48,"['j', 'semicolon']",6,0.05000000074505806,1.0,529.3041381835938,"['s', 'space']",1.172868013381958,568.0
"['s', 'd']",modular,570,img/target_10.png,48,"['j', 'k']",7,0.05000000074505806,1.0,530.5713500976562,"['d', 's']",0.6597499847412109,569.0
"['s', 'space']",modular,571,img/target_12.png,48,"['j', 'semicolon']",6,0.05000000074505806,1.0,531.3220825195312,"['s', 'space']",0.7553668022155762,570.0
"['a', 'space']",modular,572,img/target_9.png,48,"['space', 'semicolon']",5,0.05000000074505806,1.0,532.1703491210938,"['a', 'space']",0.706928014755249,571.0
"['s', 'd']",modular,573,img/target_10.png,48,"['j', 'k']",7,0.05000000074505806,1.0,532.971435546875,"['d', 's']",0.6818079948425293,572.0
"['a', 'space']",modular,574,img/target_9.png,48,"['space', 'semicolon']",5,0.05000000074505806,1.0,533.7550659179688,"['a', 'space']",0.6822500228881836,573.0
"['f', 'space']",modular,575,img/target_15.png,48,"['l', 'semicolon']",4,0.05000000074505806,1.0,534.5385131835938,"['f', 'space']",0.882728099822998,574.0
"['a', 'space']",modular,576,img/target_9.png,48,"['space', 'semicolon']",5,0.05000000074505806,1.0,535.522216796875,"['a', 'space']",0.8028240203857422,575.0
"['s', 'd']",modular,577,img/target_10.png,48,"['j', 'k']",7,0.05000000074505806,1.0,536.4209594726562,"['d', 's']",0.6478309631347656,576.0
"['a', 'space']",modular,578,img/target_9.png,48,"['space', 'semicolon']",5,0.05000000074505806,1.0,537.1718139648438,"['a', 'space']",0.7612521648406982,577.0
"['s', 'f']",modular,579,img/target_11.png,48,"['j', 'l']",8,0.05000000074505806,1.0,538.02197265625,"['f', 's']",1.1987478733062744,578.0
"['a', 's']",modular,580,img/target_6.png,48,"['space', 'j']",9,0.05000000074505806,1.0,539.305419921875,"['a', 's']",0.6436820030212402,579.0
"['d', 'space']",modular,581,img/target_14.png,48,"['k', 'semicolon']",0,0.05000000074505806,1.0,540.0387573242188,"['d', 'space']",0.7419998645782471,580.0
"['a', 's']",modular,582,img/target_6.png,48,"['space', 'j']",9,0.05000000074505806,1.0,540.8721313476562,"['a', 's']",0.9725279808044434,581.0
"['s', 'd']",modular,583,img/target_10.png,48,"['j', 'k']",7,0.05000000074505806,1.0,541.9380493164062,"['d', 's']",0.7386789321899414,582.0
"['s', 'space']",modular,584,img/target_12.png,48,"['j', 'semicolon']",6,0.05000000074505806,1.0,542.7723388671875,"['s', 'space']",0.7138609886169434,583.0
"['a', 's']",modular,585,img/target_6.png,48,"['space', 'j']",9,0.05000000074505806,1.0,543.5882568359375,"['a', 's']",0.736346960067749,584.0
"['s', 'd']",modular,586,img/target_10.png,48,"['j', 'k']",7,0.05000000074505806,1.0,544.4214477539062,"['d', 's']",0.727060079574585,585.0
"['a', 's']",modular,587,img/target_6.png,48,"['space', 'j']",9,0.05000000074505806,1.0,545.239501953125,"['a', 's']",0.6451230049133301,586.0
"['s', 'f']",modular,588,img/target_11.png,48,"['j', 'l']",8,0.05000000074505806,1.0,545.971923828125,"['f', 's']",0.8336708545684814,587.0
"['s', 'space']",modular,589,img/target_12.png,48,"['j', 'semicolon']",6,0.05000000074505806,0.0,546.8895874023438,"['s', 'space']",0.8349320888519287,588.0
"['a', 'space']",modular,590,img/target_9.png,48,"['space', 'semicolon']",5,0.05000000074505806,1.0,548.3563842773438,"['a', 'space']",1.1923930644989014,589.0
"['s', 'd']",modular,591,img/target_10.png,48,"['j', 'k']",7,0.05000000074505806,1.0,549.639892578125,"['d', 's']",0.6684420108795166,590.0
"['a', 'space']",modular,592,img/target_9.png,48,"['space', 'semicolon']",5,0.05000000074505806,1.0,550.4060668945312,"['a', 'space']",0.9181859493255615,591.0
"['s', 'f']",modular,593,img/target_11.png,48,"['j', 'l']",8,0.05000000074505806,1.0,551.4234008789062,"['f', 's']",0.9409890174865723,592.0
"['s', 'space']",modular,594,img/target_12.png,48,"['j', 'semicolon']",6,0.05000000074505806,1.0,552.4564208984375,"['s', 'space']",0.9478487968444824,593.0
"['a', 's']",modular,595,img/target_6.png,48,"['space', 'j']",9,0.05000000074505806,1.0,553.4898681640625,"['a', 's']",0.626723051071167,594.0
"['s', 'd']",modular,596,img/target_10.png,48,"['j', 'k']",7,0.05000000074505806,1.0,554.2059936523438,"['d', 's']",0.6703848838806152,595.0
"['a', 'space']",modular,597,img/target_9.png,48,"['space', 'semicolon']",5,0.05000000074505806,1.0,554.9734497070312,"['a', 'space']",0.6310000419616699,596.0
"['s', 'd']",modular,598,img/target_10.png,48,"['j', 'k']",7,0.05000000074505806,1.0,555.6893920898438,"['d', 's']",0.5311009883880615,597.0
"['a', 'space']",modular,599,img/target_9.png,48,"['space', 'semicolon']",5,0.05000000074505806,1.0,556.307373046875,"['a', 'space']",0.5849521160125732,598.0
"['s', 'f']",modular,600,img/target_11.png,48,"['j', 'l']",8,0.05000000074505806,1.0,556.9898681640625,"['f', 's']",0.7023098468780518,599.0
"['s', 'd']",modular,601,img/target_10.png,48,"['j', 'k']",7,0.05000000074505806,1.0,557.7896118164062,"['d', 's']",0.5746190547943115,600.0
"['s', 'f']",modular,602,img/target_11.png,48,"['j', 'l']",8,0.05000000074505806,1.0,558.4577026367188,"['f', 's']",0.7861790657043457,601.0
"['s', 'd']",modular,603,img/target_10.png,48,"['j', 'k']",7,0.05000000074505806,1.0,559.339599609375,"['d', 's']",0.5049431324005127,602.0
"['s', 'space']",modular,604,img/target_12.png,48,"['j', 'semicolon']",6,0.05000000074505806,1.0,559.9403076171875,"['s', 'space']",0.9770369529724121,603.0
"['s', 'f']",modular,605,img/target_11.png,48,"['j', 'l']",8,0.05000000074505806,1.0,561.0090942382812,"['f', 's']",0.6029198169708252,604.0
"['a', 'space']",modular,606,img/target_9.png,48,"['space', 'semicolon']",5,0.05000000074505806,1.0,561.70703125,"['a', 'space']",0.6730260848999023,605.0
"['s', 'space']",modular,607,img/target_12.png,48,"['j', 'semicolon']",6,0.05000000074505806,1.0,562.4750366210938,"['s', 'space']",0.6648070812225342,606.0
"['a', 's']",modular,608,img/target_6.png,48,"['space', 'j']",9,0.05000000074505806,1.0,563.2406616210938,"['a', 's']",0.6594748497009277,607.0
"['d', 'space']",modular,609,img/target_14.png,48,"['k', 'semicolon']",0,0.05000000074505806,1.0,563.9906005859375,"['d', 'space']",0.9174540042877197,608.0
"['a', 'f']",modular,610,img/target_8.png,48,"['space', 'l']",3,0.05000000074505806,0.0,565.0074462890625,"['a', 'f']",0.596290111541748,609.0
"['a', 'd']",modular,611,img/target_7.png,48,"['space', 'k']",1,0.05000000074505806,0.0,566.2906494140625,"['a', 'd']",0.761106014251709,610.0
"['a', 'f']",modular,612,img/target_8.png,48,"['space', 'l']",3,0.05000000074505806,1.0,567.708984375,"['a', 'f']",0.8707301616668701,611.0
"['d', 'space']",modular,613,img/target_14.png,48,"['k', 'semicolon']",0,0.05000000074505806,0.0,568.6741333007812,"['d', 'space']",0.6176259517669678,612.0
"['a', 's']",modular,614,img/target_6.png,48,"['space', 'j']",9,0.05000000074505806,1.0,569.7908935546875,"['a', 's']",0.7167270183563232,613.0
"['s', 'space']",modular,615,img/target_12.png,48,"['j', 'semicolon']",6,0.05000000074505806,1.0,570.607421875,"['s', 'space']",0.8044919967651367,614.0
"['a', 's']",modular,616,img/target_6.png,48,"['space', 'j']",9,0.05000000074505806,1.0,571.5075073242188,"['a', 's']",0.6093690395355225,615.0
"['s', 'd']",modular,617,img/target_10.png,48,"['j', 'k']",7,0.05000000074505806,1.0,572.2081909179688,"['d', 's']",0.8434760570526123,616.0
"['s', 'space']",modular,618,img/target_12.png,48,"['j', 'semicolon']",6,0.05000000074505806,1.0,573.1426391601562,"['s', 'space']",0.7170600891113281,617.0
"['a', 'space']",modular,619,img/target_9.png,48,"['space', 'semicolon']",5,0.05000000074505806,1.0,573.9583740234375,"['a', 'space']",0.6775429248809814,618.0
"['s', 'f']",modular,620,img/target_11.png,48,"['j', 'l']",8,0.05000000074505806,1.0,574.7255859375,"['f', 's']",0.862091064453125,619.0
"['s', 'space']",modular,621,img/target_12.png,48,"['j', 'semicolon']",6,0.05000000074505806,0.0,575.6756591796875,"['s', 'space']",0.6970651149749756,620.0
"['a', 'space']",modular,622,img/target_9.png,48,"['space', 'semicolon']",5,0.05000000074505806,0.0,577.224853515625,"['a', 'space']",0.6825969219207764,621.0
"['s', 'f']",modular,623,img/target_11.png,48,"['j', 'l']",8,0.05000000074505806,1.0,578.5582275390625,"['f', 's']",0.7412540912628174,622.0
"['a', 's']",modular,624,img/target_6.png,48,"['space', 'j']",9,0.05000000074505806,1.0,579.392333984375,"['a', 's']",0.6829500198364258,623.0
"['d', 'space']",modular,625,img/target_14.png,48,"['k', 'semicolon']",0,0.05000000074505806,1.0,580.1765747070312,"['d', 'space']",0.8345658779144287,624.0
"['d', 'f']",modular,626,img/target_13.png,48,"['k', 'l']",2,0.05000000074505806,1.0,581.1089477539062,"['d', 'f']",0.7022750377655029,625.0
"['a', 'd']",modular,627,img/target_7.png,48,"['space', 'k']",1,0.05000000074505806,1.0,581.9085693359375,"['a', 'd']",0.7040839195251465,626.0
"['f', 'space']",modular,628,img/target_15.png,48,"['l', 'semicolon']",4,0.05000000074505806,1.0,582.70947265625,"['f', 'space']",0.8939049243927002,627.0
"['a', 'd']",modular,629,img/target_7.png,48,"['space', 'k']",1,0.05000000074505806,1.0,583.69189453125,"['a', 'd']",0.8632190227508545,628.0
"['a', 'f']",modular,630,img/target_8.png,48,"['space', 'l']",3,0.05000000074505806,1.0,584.6598510742188,"['a', 'f']",1.1911158561706543,629.0
"['f', 'space']",modular,631,img/target_15.png,48,"['l', 'semicolon']",4,0.05000000074505806,1.0,585.9427490234375,"['f', 'space']",0.8126430511474609,630.0
"['a', 'd']",modular,632,img/target_7.png,48,"['space', 'k']",1,0.05000000074505806,1.0,586.8428344726562,"['a', 'd']",0.8881800174713135,631.0
"['a', 'f']",modular,633,img/target_8.png,48,"['space', 'l']",3,0.05000000074505806,1.0,587.8264770507812,"['a', 'f']",0.8410470485687256,632.0
"['f', 'space']",modular,634,img/target_15.png,48,"['l', 'semicolon']",4,0.05000000074505806,1.0,588.759521484375,"['f', 'space']",0.8268880844116211,633.0
"['a', 'space']",modular,635,img/target_9.png,48,"['space', 'semicolon']",5,0.05000000074505806,1.0,589.6759033203125,"['a', 'space']",0.9354000091552734,634.0
"['f', 'space']",modular,636,img/target_15.png,48,"['l', 'semicolon']",4,0.05000000074505806,1.0,590.7100830078125,"['f', 'space']",0.7811899185180664,635.0
"['a', 'f']",modular,637,img/target_8.png,48,"['space', 'l']",3,0.05000000074505806,0.0,591.596435546875,"['a', 'f']",0.8303890228271484,636.0
"['d', 'f']",modular,638,img/target_13.png,48,"['k', 'l']",2,0.05000000074505806,1.0,592.90966796875,"['d', 'f']",0.7171139717102051,637.0
"['a', 'f']",modular,639,img/target_8.png,48,"['space', 'l']",3,0.05000000074505806,1.0,593.72705078125,"['a', 'f']",0.7721130847930908,638.0
"['d', 'f']",modular,640,img/target_13.png,48,"['k', 'l']",2,0.05000000074505806,1.0,594.5939331054688,"['d', 'f']",0.6822109222412109,639.0
"['d', 'space']",modular,641,img/target_14.png,48,"['k', 'semicolon']",0,0.05000000074505806,1.0,595.3773193359375,"['d', 'space']",0.9457588195800781,640.0
"['a', 's']",modular,642,img/target_6.png,48,"['space', 'j']",9,0.05000000074505806,1.0,596.4100952148438,"['a', 's']",0.768610954284668,641.0
"['s', 'f']",modular,643,img/target_11.png,48,"['j', 'l']",8,0.05000000074505806,1.0,597.2777099609375,"['f', 's']",0.7328770160675049,642.0
"['a', 'space']",modular,644,img/target_9.png,48,"['space', 'semicolon']",5,0.05000000074505806,1.0,598.1102905273438,"['a', 'space']",1.0284700393676758,643.0
"['s', 'd']",modular,645,img/target_10.png,48,"['j', 'k']",7,0.05000000074505806,1.0,599.226806640625,"['d', 's']",0.6963450908660889,644.0
"['s', 'f']",modular,646,img/target_11.png,48,"['j', 'l']",8,0.05000000074505806,1.0,600.0110473632812,"['f', 's']",0.8394331932067871,645.0
"['a', 'space']",modular,647,img/target_9.png,48,"['space', 'semicolon']",5,0.05000000074505806,0.0,600.9443359375,"['a', 'space']",0.6102828979492188,646.0
"['s', 'd']",modular,648,img/target_10.png,48,"['j', 'k']",7,0.05000000074505806,1.0,604.5946044921875,"['d', 's']",0.8401060104370117,647.0
"['a', 'space']",modular,649,img/target_9.png,48,"['space', 'semicolon']",5,0.05000000074505806,1.0,605.5284423828125,"['a', 'space']",0.6982159614562988,648.0
"['s', 'space']",modular,650,img/target_12.png,48,"['j', 'semicolon']",6,0.05000000074505806,1.0,606.3277587890625,"['s', 'space']",1.5705080032348633,649.0
"['s', 'f']",modular,651,img/target_11.png,48,"['j', 'l']",8,0.05000000074505806,1.0,607.9945068359375,"['f', 's']",1.0638060569763184,650.0
"['a', 'space']",modular,652,img/target_9.png,48,"['space', 'semicolon']",5,0.05000000074505806,1.0,609.1627197265625,"['a', 'space']",0.6315670013427734,651.0
"['f', 'space']",modular,653,img/target_15.png,48,"['l', 'semicolon']",4,0.05000000074505806,1.0,609.8953247070312,"['f', 'space']",0.9392850399017334,652.0
"['a', 'space']",modular,654,img/target_9.png,48,"['space', 'semicolon']",5,0.05000000074505806,0.0,610.9287719726562,"['a', 'space']",0.2897310256958008,653.0
"['f', 'space']",modular,655,img/target_15.png,48,"['l', 'semicolon']",4,0.05000000074505806,1.0,611.6676635742188,"['f', 'space']",0.7180650234222412,654.0
"['a', 'f']",modular,656,img/target_8.png,48,"['space', 'l']",3,0.05000000074505806,1.0,612.479248046875,"['a', 'f']",0.7778260707855225,655.0
"['f', 'space']",modular,657,img/target_15.png,48,"['l', 'semicolon']",4,0.05000000074505806,1.0,613.3468017578125,"['f', 'space']",0.6702499389648438,656.0
"['d', 'f']",modular,658,img/target_13.png,48,"['k', 'l']",2,0.05000000074505806,1.0,614.11181640625,"['d', 'f']",0.8091621398925781,657.0
"['f', 'space']",modular,659,img/target_15.png,48,"['l', 'semicolon']",4,0.05000000074505806,1.0,615.0123291015625,"['f', 'space']",0.6847951412200928,658.0
"['a', 'space']",modular,660,img/target_9.png,48,"['space', 'semicolon']",5,0.05000000074505806,1.0,615.7950439453125,"['a', 'space']",0.6946160793304443,659.0
"['s', 'space']",modular,661,img/target_12.png,48,"['j', 'semicolon']",6,0.05000000074505806,1.0,616.5792236328125,"['s', 'space']",0.8535490036010742,660.0
"['a', 's']",modular,662,img/target_6.png,48,"['space', 'j']",9,0.05000000074505806,0.0,617.5303344726562,"['a', 's']",0.6956360340118408,661.0
"['s', 'd']",modular,663,img/target_10.png,48,"['j', 'k']",7,0.05000000074505806,1.0,618.9122314453125,"['d', 's']",0.6892578601837158,662.0
"['a', 's']",modular,664,img/target_6.png,48,"['space', 'j']",9,0.05000000074505806,1.0,619.69677734375,"['a', 's']",0.727992057800293,663.0
"['s', 'd']",modular,665,img/target_10.png,48,"['j', 'k']",7,0.05000000074505806,0.0,620.5134887695312,"['d', 's']",0.8964450359344482,664.0
"['a', 'space']",modular,666,img/target_9.png,48,"['space', 'semicolon']",5,0.05000000074505806,1.0,622.0623168945312,"['a', 'space']",0.6509630680084229,665.0
"['f', 'space']",modular,667,img/target_15.png,48,"['l', 'semicolon']",4,0.05000000074505806,0.0,622.8132934570312,"['f', 'space']",0.7725179195404053,666.0
"['a', 'space']",modular,668,img/target_9.png,48,"['space', 'semicolon']",5,0.05000000074505806,1.0,624.1627807617188,"['a', 'space']",0.6788280010223389,667.0
"['s', 'space']",modular,669,img/target_12.png,48,"['j', 'semicolon']",6,0.05000000074505806,1.0,624.9293212890625,"['s', 'space']",0.8968429565429688,668.0
"['s', 'f']",modular,670,img/target_11.png,48,"['j', 'l']",8,0.05000000074505806,1.0,625.9129638671875,"['f', 's']",0.744671106338501,669.0
"['a', 's']",modular,671,img/target_6.png,48,"['space', 'j']",9,0.05000000074505806,1.0,626.7479858398438,"['a', 's']",0.6365249156951904,670.0
"['s', 'f']",modular,672,img/target_11.png,48,"['j', 'l']",8,0.05000000074505806,1.0,627.4807739257812,"['f', 's']",0.6556921005249023,671.0
